# Al2O3 Experimental X-ray Diffraction
# 2theta  Intensity
5.000	21.000
5.010	21.000
5.020	15.000
5.030	34.000
5.040	21.000
5.050	32.000
5.060	17.000
5.070	14.000
5.080	16.000
5.090	21.000
5.100	27.000
5.110	27.000
5.120	36.000
5.130	27.000
5.140	25.000
5.150	23.000
5.160	21.000
5.170	26.000
5.180	23.000
5.190	20.000
5.200	27.000
5.210	21.000
5.220	29.000
5.230	19.000
5.240	23.000
5.250	24.000
5.260	31.000
5.270	27.000
5.280	25.000
5.290	32.000
5.300	27.000
5.310	30.000
5.320	13.000
5.330	26.000
5.340	22.000
5.350	21.000
5.360	18.000
5.370	36.000
5.380	25.000
5.390	27.000
5.400	29.000
5.410	19.000
5.420	27.000
5.430	27.000
5.440	24.000
5.450	22.000
5.460	20.000
5.470	26.000
5.480	22.000
5.490	24.000
5.500	23.000
5.510	26.000
5.520	24.000
5.530	32.000
5.540	24.000
5.550	18.000
5.560	22.000
5.570	20.000
5.580	23.000
5.590	23.000
5.600	31.000
5.610	31.000
5.620	31.000
5.630	26.000
5.640	22.000
5.650	21.000
5.660	29.000
5.670	26.000
5.680	21.000
5.690	23.000
5.700	34.000
5.710	29.000
5.720	24.000
5.730	35.000
5.740	22.000
5.750	21.000
5.760	25.000
5.770	20.000
5.780	39.000
5.790	14.000
5.800	23.000
5.810	21.000
5.820	20.000
5.830	22.000
5.840	28.000
5.850	25.000
5.860	26.000
5.870	28.000
5.880	25.000
5.890	30.000
5.900	25.000
5.910	26.000
5.920	29.000
5.930	35.000
5.940	28.000
5.950	29.000
5.960	29.000
5.970	22.000
5.980	30.000
5.990	30.000
6.000	16.000
6.010	21.000
6.020	20.000
6.030	31.000
6.040	24.000
6.050	20.000
6.060	31.000
6.070	22.000
6.080	15.000
6.090	26.000
6.100	28.000
6.110	21.000
6.120	22.000
6.130	32.000
6.140	31.000
6.150	19.000
6.160	24.000
6.170	20.000
6.180	19.000
6.190	18.000
6.200	25.000
6.210	14.000
6.220	19.000
6.230	18.000
6.240	19.000
6.250	16.000
6.260	24.000
6.270	25.000
6.280	22.000
6.290	20.000
6.300	20.000
6.310	20.000
6.320	19.000
6.330	15.000
6.340	22.000
6.350	16.000
6.360	16.000
6.370	20.000
6.380	27.000
6.390	16.000
6.400	22.000
6.410	17.000
6.420	24.000
6.430	19.000
6.440	21.000
6.450	16.000
6.460	22.000
6.470	19.000
6.480	14.000
6.490	30.000
6.500	19.000
6.510	18.000
6.520	18.000
6.530	22.000
6.540	19.000
6.550	19.000
6.560	23.000
6.570	20.000
6.580	19.000
6.590	22.000
6.600	27.000
6.610	14.000
6.620	21.000
6.630	25.000
6.640	18.000
6.650	26.000
6.660	25.000
6.670	23.000
6.680	13.000
6.690	9.000
6.700	12.000
6.710	21.000
6.720	13.000
6.730	21.000
6.740	19.000
6.750	18.000
6.760	15.000
6.770	16.000
6.780	19.000
6.790	25.000
6.800	17.000
6.810	17.000
6.820	23.000
6.830	11.000
6.840	18.000
6.850	12.000
6.860	24.000
6.870	17.000
6.880	13.000
6.890	20.000
6.900	13.000
6.910	18.000
6.920	18.000
6.930	16.000
6.940	18.000
6.950	17.000
6.960	17.000
6.970	17.000
6.980	18.000
6.990	16.000
7.000	16.000
7.010	17.000
7.020	17.000
7.030	17.000
7.040	27.000
7.050	15.000
7.060	15.000
7.070	15.000
7.080	14.000
7.090	21.000
7.100	20.000
7.110	25.000
7.120	16.000
7.130	13.000
7.140	17.000
7.150	22.000
7.160	22.000
7.170	13.000
7.180	25.000
7.190	21.000
7.200	21.000
7.210	11.000
7.220	21.000
7.230	13.000
7.240	10.000
7.250	17.000
7.260	25.000
7.270	13.000
7.280	19.000
7.290	19.000
7.300	26.000
7.310	17.000
7.320	21.000
7.330	10.000
7.340	13.000
7.350	16.000
7.360	18.000
7.370	9.000
7.380	22.000
7.390	17.000
7.400	13.000
7.410	20.000
7.420	22.000
7.430	18.000
7.440	13.000
7.450	21.000
7.460	17.000
7.470	25.000
7.480	17.000
7.490	17.000
7.500	20.000
7.510	25.000
7.520	22.000
7.530	24.000
7.540	22.000
7.550	16.000
7.560	15.000
7.570	10.000
7.580	22.000
7.590	20.000
7.600	19.000
7.610	14.000
7.620	19.000
7.630	16.000
7.640	17.000
7.650	13.000
7.660	17.000
7.670	11.000
7.680	26.000
7.690	21.000
7.700	15.000
7.710	26.000
7.720	17.000
7.730	22.000
7.740	16.000
7.750	18.000
7.760	15.000
7.770	19.000
7.780	18.000
7.790	15.000
7.800	20.000
7.810	14.000
7.820	18.000
7.830	23.000
7.840	30.000
7.850	22.000
7.860	20.000
7.870	21.000
7.880	18.000
7.890	10.000
7.900	23.000
7.910	21.000
7.920	20.000
7.930	12.000
7.940	18.000
7.950	18.000
7.960	22.000
7.970	21.000
7.980	22.000
7.990	21.000
8.000	20.000
8.010	18.000
8.020	19.000
8.030	15.000
8.040	19.000
8.050	13.000
8.060	19.000
8.070	25.000
8.080	17.000
8.090	22.000
8.100	25.000
8.110	17.000
8.120	29.000
8.130	15.000
8.140	20.000
8.150	22.000
8.160	24.000
8.170	16.000
8.180	15.000
8.190	12.000
8.200	18.000
8.210	23.000
8.220	17.000
8.230	16.000
8.240	19.000
8.250	30.000
8.260	19.000
8.270	17.000
8.280	18.000
8.290	21.000
8.300	24.000
8.310	17.000
8.320	20.000
8.330	17.000
8.340	10.000
8.350	14.000
8.360	18.000
8.370	13.000
8.380	13.000
8.390	15.000
8.400	18.000
8.410	10.000
8.420	18.000
8.430	13.000
8.440	19.000
8.450	14.000
8.460	10.000
8.470	21.000
8.480	14.000
8.490	16.000
8.500	13.000
8.510	14.000
8.520	8.000
8.530	12.000
8.540	14.000
8.550	11.000
8.560	17.000
8.570	21.000
8.580	20.000
8.590	16.000
8.600	24.000
8.610	10.000
8.620	24.000
8.630	11.000
8.640	14.000
8.650	17.000
8.660	9.000
8.670	17.000
8.680	16.000
8.690	10.000
8.700	11.000
8.710	16.000
8.720	20.000
8.730	14.000
8.740	8.000
8.750	17.000
8.760	11.000
8.770	17.000
8.780	14.000
8.790	16.000
8.800	11.000
8.810	22.000
8.820	14.000
8.830	18.000
8.840	7.000
8.850	12.000
8.860	18.000
8.870	14.000
8.880	22.000
8.890	13.000
8.900	12.000
8.910	15.000
8.920	14.000
8.930	15.000
8.940	14.000
8.950	14.000
8.960	24.000
8.970	10.000
8.980	14.000
8.990	16.000
9.000	9.000
9.010	13.000
9.020	19.000
9.030	12.000
9.040	17.000
9.050	18.000
9.060	19.000
9.070	17.000
9.080	17.000
9.090	14.000
9.100	14.000
9.110	15.000
9.120	10.000
9.130	15.000
9.140	15.000
9.150	18.000
9.160	17.000
9.170	21.000
9.180	8.000
9.190	20.000
9.200	17.000
9.210	10.000
9.220	18.000
9.230	14.000
9.240	18.000
9.250	12.000
9.260	14.000
9.270	11.000
9.280	19.000
9.290	12.000
9.300	19.000
9.310	13.000
9.320	11.000
9.330	22.000
9.340	19.000
9.350	13.000
9.360	16.000
9.370	16.000
9.380	18.000
9.390	14.000
9.400	10.000
9.410	22.000
9.420	18.000
9.430	10.000
9.440	7.000
9.450	20.000
9.460	20.000
9.470	14.000
9.480	16.000
9.490	18.000
9.500	8.000
9.510	24.000
9.520	12.000
9.530	14.000
9.540	17.000
9.550	14.000
9.560	13.000
9.570	16.000
9.580	13.000
9.590	13.000
9.600	25.000
9.610	22.000
9.620	19.000
9.630	16.000
9.640	16.000
9.650	10.000
9.660	8.000
9.670	14.000
9.680	11.000
9.690	21.000
9.700	17.000
9.710	15.000
9.720	17.000
9.730	12.000
9.740	15.000
9.750	18.000
9.760	19.000
9.770	10.000
9.780	15.000
9.790	17.000
9.800	24.000
9.810	18.000
9.820	22.000
9.830	18.000
9.840	13.000
9.850	15.000
9.860	12.000
9.870	10.000
9.880	17.000
9.890	10.000
9.900	18.000
9.910	11.000
9.920	21.000
9.930	14.000
9.940	11.000
9.950	18.000
9.960	20.000
9.970	15.000
9.980	15.000
9.990	25.000
10.000	19.000
10.010	14.000
10.020	13.000
10.030	15.000
10.040	17.000
10.050	11.000
10.060	13.000
10.070	16.000
10.080	11.000
10.090	14.000
10.100	8.000
10.110	17.000
10.120	9.000
10.130	14.000
10.140	13.000
10.150	10.000
10.160	20.000
10.170	11.000
10.180	21.000
10.190	10.000
10.200	19.000
10.210	17.000
10.220	16.000
10.230	15.000
10.240	14.000
10.250	15.000
10.260	12.000
10.270	14.000
10.280	9.000
10.290	8.000
10.300	15.000
10.310	11.000
10.320	10.000
10.330	8.000
10.340	14.000
10.350	11.000
10.360	8.000
10.370	12.000
10.380	15.000
10.390	11.000
10.400	11.000
10.410	11.000
10.420	12.000
10.430	9.000
10.440	7.000
10.450	10.000
10.460	14.000
10.470	9.000
10.480	9.000
10.490	8.000
10.500	10.000
10.510	22.000
10.520	6.000
10.530	16.000
10.540	12.000
10.550	18.000
10.560	11.000
10.570	8.000
10.580	9.000
10.590	14.000
10.600	10.000
10.610	5.000
10.620	14.000
10.630	12.000
10.640	8.000
10.650	9.000
10.660	8.000
10.670	15.000
10.680	9.000
10.690	9.000
10.700	10.000
10.710	9.000
10.720	12.000
10.730	12.000
10.740	8.000
10.750	14.000
10.760	11.000
10.770	16.000
10.780	11.000
10.790	11.000
10.800	10.000
10.810	12.000
10.820	9.000
10.830	17.000
10.840	14.000
10.850	10.000
10.860	10.000
10.870	13.000
10.880	8.000
10.890	11.000
10.900	9.000
10.910	17.000
10.920	9.000
10.930	11.000
10.940	13.000
10.950	11.000
10.960	14.000
10.970	16.000
10.980	10.000
10.990	13.000
11.000	16.000
11.010	17.000
11.020	9.000
11.030	11.000
11.040	12.000
11.050	15.000
11.060	11.000
11.070	20.000
11.080	15.000
11.090	13.000
11.100	9.000
11.110	13.000
11.120	12.000
11.130	13.000
11.140	13.000
11.150	11.000
11.160	22.000
11.170	12.000
11.180	12.000
11.190	13.000
11.200	16.000
11.210	18.000
11.220	8.000
11.230	13.000
11.240	17.000
11.250	9.000
11.260	13.000
11.270	11.000
11.280	17.000
11.290	9.000
11.300	13.000
11.310	13.000
11.320	13.000
11.330	11.000
11.340	7.000
11.350	17.000
11.360	7.000
11.370	16.000
11.380	11.000
11.390	12.000
11.400	7.000
11.410	11.000
11.420	17.000
11.430	17.000
11.440	14.000
11.450	13.000
11.460	11.000
11.470	12.000
11.480	11.000
11.490	11.000
11.500	10.000
11.510	5.000
11.520	11.000
11.530	11.000
11.540	12.000
11.550	17.000
11.560	10.000
11.570	7.000
11.580	11.000
11.590	14.000
11.600	16.000
11.610	12.000
11.620	21.000
11.630	9.000
11.640	15.000
11.650	13.000
11.660	10.000
11.670	10.000
11.680	11.000
11.690	13.000
11.700	19.000
11.710	18.000
11.720	10.000
11.730	14.000
11.740	12.000
11.750	13.000
11.760	19.000
11.770	17.000
11.780	16.000
11.790	17.000
11.800	14.000
11.810	15.000
11.820	19.000
11.830	15.000
11.840	17.000
11.850	14.000
11.860	7.000
11.870	12.000
11.880	12.000
11.890	7.000
11.900	14.000
11.910	18.000
11.920	19.000
11.930	9.000
11.940	10.000
11.950	9.000
11.960	13.000
11.970	9.000
11.980	13.000
11.990	16.000
12.000	18.000
12.010	6.000
12.020	17.000
12.030	15.000
12.040	18.000
12.050	14.000
12.060	15.000
12.070	11.000
12.080	16.000
12.090	11.000
12.100	14.000
12.110	14.000
12.120	24.000
12.130	16.000
12.140	8.000
12.150	19.000
12.160	13.000
12.170	17.000
12.180	13.000
12.190	12.000
12.200	13.000
12.210	12.000
12.220	16.000
12.230	14.000
12.240	9.000
12.250	12.000
12.260	14.000
12.270	16.000
12.280	15.000
12.290	15.000
12.300	13.000
12.310	7.000
12.320	12.000
12.330	9.000
12.340	8.000
12.350	13.000
12.360	14.000
12.370	9.000
12.380	13.000
12.390	15.000
12.400	11.000
12.410	17.000
12.420	11.000
12.430	17.000
12.440	15.000
12.450	13.000
12.460	17.000
12.470	22.000
12.480	14.000
12.490	11.000
12.500	13.000
12.510	24.000
12.520	9.000
12.530	17.000
12.540	13.000
12.550	9.000
12.560	13.000
12.570	8.000
12.580	16.000
12.590	17.000
12.600	10.000
12.610	14.000
12.620	15.000
12.630	7.000
12.640	13.000
12.650	16.000
12.660	10.000
12.670	19.000
12.680	16.000
12.690	17.000
12.700	14.000
12.710	15.000
12.720	15.000
12.730	19.000
12.740	13.000
12.750	12.000
12.760	13.000
12.770	10.000
12.780	12.000
12.790	11.000
12.800	11.000
12.810	17.000
12.820	13.000
12.830	19.000
12.840	10.000
12.850	15.000
12.860	16.000
12.870	12.000
12.880	22.000
12.890	11.000
12.900	15.000
12.910	14.000
12.920	15.000
12.930	12.000
12.940	7.000
12.950	14.000
12.960	9.000
12.970	13.000
12.980	15.000
12.990	13.000
13.000	13.000
13.010	13.000
13.020	18.000
13.030	13.000
13.040	20.000
13.050	11.000
13.060	16.000
13.070	10.000
13.080	9.000
13.090	17.000
13.100	12.000
13.110	13.000
13.120	11.000
13.130	14.000
13.140	5.000
13.150	11.000
13.160	15.000
13.170	10.000
13.180	15.000
13.190	10.000
13.200	9.000
13.210	10.000
13.220	12.000
13.230	19.000
13.240	15.000
13.250	17.000
13.260	12.000
13.270	12.000
13.280	11.000
13.290	13.000
13.300	19.000
13.310	19.000
13.320	17.000
13.330	8.000
13.340	9.000
13.350	11.000
13.360	15.000
13.370	14.000
13.380	11.000
13.390	15.000
13.400	13.000
13.410	17.000
13.420	16.000
13.430	10.000
13.440	16.000
13.450	11.000
13.460	13.000
13.470	13.000
13.480	14.000
13.490	10.000
13.500	15.000
13.510	8.000
13.520	7.000
13.530	11.000
13.540	11.000
13.550	12.000
13.560	10.000
13.570	13.000
13.580	11.000
13.590	11.000
13.600	10.000
13.610	8.000
13.620	17.000
13.630	13.000
13.640	11.000
13.650	12.000
13.660	13.000
13.670	6.000
13.680	13.000
13.690	4.000
13.700	16.000
13.710	9.000
13.720	16.000
13.730	12.000
13.740	17.000
13.750	12.000
13.760	14.000
13.770	21.000
13.780	17.000
13.790	15.000
13.800	13.000
13.810	15.000
13.820	15.000
13.830	15.000
13.840	6.000
13.850	7.000
13.860	13.000
13.870	7.000
13.880	13.000
13.890	8.000
13.900	16.000
13.910	11.000
13.920	15.000
13.930	10.000
13.940	6.000
13.950	14.000
13.960	7.000
13.970	10.000
13.980	15.000
13.990	15.000
14.000	20.000
14.010	12.000
14.020	15.000
14.030	13.000
14.040	13.000
14.050	17.000
14.060	9.000
14.070	14.000
14.080	15.000
14.090	13.000
14.100	14.000
14.110	16.000
14.120	12.000
14.130	16.000
14.140	15.000
14.150	11.000
14.160	12.000
14.170	15.000
14.180	20.000
14.190	16.000
14.200	9.000
14.210	16.000
14.220	15.000
14.230	18.000
14.240	10.000
14.250	14.000
14.260	12.000
14.270	15.000
14.280	13.000
14.290	14.000
14.300	16.000
14.310	13.000
14.320	15.000
14.330	11.000
14.340	13.000
14.350	9.000
14.360	8.000
14.370	8.000
14.380	12.000
14.390	12.000
14.400	12.000
14.410	16.000
14.420	10.000
14.430	10.000
14.440	14.000
14.450	8.000
14.460	15.000
14.470	15.000
14.480	23.000
14.490	13.000
14.500	8.000
14.510	11.000
14.520	16.000
14.530	16.000
14.540	19.000
14.550	11.000
14.560	13.000
14.570	14.000
14.580	12.000
14.590	13.000
14.600	8.000
14.610	15.000
14.620	7.000
14.630	8.000
14.640	14.000
14.650	18.000
14.660	11.000
14.670	11.000
14.680	12.000
14.690	16.000
14.700	8.000
14.710	12.000
14.720	10.000
14.730	14.000
14.740	10.000
14.750	9.000
14.760	10.000
14.770	14.000
14.780	12.000
14.790	4.000
14.800	12.000
14.810	14.000
14.820	11.000
14.830	12.000
14.840	16.000
14.850	7.000
14.860	18.000
14.870	12.000
14.880	7.000
14.890	14.000
14.900	15.000
14.910	14.000
14.920	14.000
14.930	17.000
14.940	11.000
14.950	14.000
14.960	8.000
14.970	11.000
14.980	11.000
14.990	14.000
15.000	11.000
15.010	9.000
15.020	13.000
15.030	13.000
15.040	11.000
15.050	10.000
15.060	11.000
15.070	13.000
15.080	13.000
15.090	8.000
15.100	10.000
15.110	9.000
15.120	10.000
15.130	18.000
15.140	14.000
15.150	8.000
15.160	10.000
15.170	14.000
15.180	13.000
15.190	8.000
15.200	10.000
15.210	10.000
15.220	10.000
15.230	8.000
15.240	13.000
15.250	14.000
15.260	7.000
15.270	15.000
15.280	7.000
15.290	15.000
15.300	7.000
15.310	18.000
15.320	11.000
15.330	13.000
15.340	10.000
15.350	15.000
15.360	13.000
15.370	10.000
15.380	12.000
15.390	11.000
15.400	5.000
15.410	16.000
15.420	6.000
15.430	14.000
15.440	12.000
15.450	9.000
15.460	16.000
15.470	6.000
15.480	10.000
15.490	7.000
15.500	14.000
15.510	10.000
15.520	10.000
15.530	10.000
15.540	9.000
15.550	9.000
15.560	8.000
15.570	14.000
15.580	10.000
15.590	8.000
15.600	11.000
15.610	8.000
15.620	12.000
15.630	13.000
15.640	7.000
15.650	8.000
15.660	6.000
15.670	7.000
15.680	15.000
15.690	6.000
15.700	10.000
15.710	10.000
15.720	6.000
15.730	7.000
15.740	11.000
15.750	8.000
15.760	13.000
15.770	9.000
15.780	12.000
15.790	9.000
15.800	5.000
15.810	12.000
15.820	6.000
15.830	7.000
15.840	9.000
15.850	14.000
15.860	7.000
15.870	9.000
15.880	9.000
15.890	5.000
15.900	10.000
15.910	15.000
15.920	14.000
15.930	9.000
15.940	14.000
15.950	8.000
15.960	11.000
15.970	2.000
15.980	7.000
15.990	4.000
16.000	8.000
16.010	12.000
16.020	9.000
16.030	13.000
16.040	9.000
16.050	14.000
16.060	9.000
16.070	11.000
16.080	11.000
16.090	8.000
16.100	10.000
16.110	3.000
16.120	13.000
16.130	9.000
16.140	12.000
16.150	10.000
16.160	16.000
16.170	13.000
16.180	11.000
16.190	7.000
16.200	11.000
16.210	11.000
16.220	13.000
16.230	8.000
16.240	6.000
16.250	8.000
16.260	10.000
16.270	5.000
16.280	8.000
16.290	9.000
16.300	7.000
16.310	11.000
16.320	7.000
16.330	12.000
16.340	10.000
16.350	9.000
16.360	12.000
16.370	10.000
16.380	7.000
16.390	11.000
16.400	13.000
16.410	11.000
16.420	8.000
16.430	6.000
16.440	3.000
16.450	10.000
16.460	10.000
16.470	7.000
16.480	11.000
16.490	11.000
16.500	7.000
16.510	12.000
16.520	12.000
16.530	12.000
16.540	10.000
16.550	10.000
16.560	18.000
16.570	4.000
16.580	16.000
16.590	5.000
16.600	10.000
16.610	12.000
16.620	14.000
16.630	12.000
16.640	8.000
16.650	10.000
16.660	6.000
16.670	7.000
16.680	7.000
16.690	10.000
16.700	11.000
16.710	11.000
16.720	8.000
16.730	8.000
16.740	9.000
16.750	7.000
16.760	10.000
16.770	9.000
16.780	8.000
16.790	9.000
16.800	11.000
16.810	13.000
16.820	10.000
16.830	3.000
16.840	7.000
16.850	13.000
16.860	9.000
16.870	6.000
16.880	8.000
16.890	16.000
16.900	16.000
16.910	11.000
16.920	6.000
16.930	9.000
16.940	13.000
16.950	7.000
16.960	11.000
16.970	3.000
16.980	7.000
16.990	8.000
17.000	7.000
17.010	8.000
17.020	15.000
17.030	12.000
17.040	9.000
17.050	8.000
17.060	14.000
17.070	9.000
17.080	7.000
17.090	6.000
17.100	6.000
17.110	5.000
17.120	8.000
17.130	8.000
17.140	10.000
17.150	6.000
17.160	8.000
17.170	5.000
17.180	10.000
17.190	10.000
17.200	5.000
17.210	17.000
17.220	11.000
17.230	9.000
17.240	17.000
17.250	3.000
17.260	7.000
17.270	5.000
17.280	7.000
17.290	11.000
17.300	11.000
17.310	13.000
17.320	7.000
17.330	12.000
17.340	6.000
17.350	14.000
17.360	7.000
17.370	13.000
17.380	9.000
17.390	12.000
17.400	6.000
17.410	7.000
17.420	10.000
17.430	14.000
17.440	5.000
17.450	8.000
17.460	12.000
17.470	13.000
17.480	6.000
17.490	8.000
17.500	5.000
17.510	6.000
17.520	4.000
17.530	7.000
17.540	7.000
17.550	12.000
17.560	12.000
17.570	6.000
17.580	11.000
17.590	8.000
17.600	6.000
17.610	14.000
17.620	12.000
17.630	14.000
17.640	9.000
17.650	8.000
17.660	12.000
17.670	8.000
17.680	10.000
17.690	12.000
17.700	13.000
17.710	6.000
17.720	11.000
17.730	8.000
17.740	8.000
17.750	8.000
17.760	11.000
17.770	9.000
17.780	4.000
17.790	7.000
17.800	5.000
17.810	4.000
17.820	9.000
17.830	14.000
17.840	10.000
17.850	12.000
17.860	13.000
17.870	10.000
17.880	15.000
17.890	9.000
17.900	11.000
17.910	7.000
17.920	8.000
17.930	11.000
17.940	12.000
17.950	10.000
17.960	4.000
17.970	7.000
17.980	11.000
17.990	6.000
18.000	6.000
18.010	9.000
18.020	8.000
18.030	12.000
18.040	6.000
18.050	7.000
18.060	12.000
18.070	8.000
18.080	2.000
18.090	7.000
18.100	9.000
18.110	6.000
18.120	5.000
18.130	7.000
18.140	5.000
18.150	11.000
18.160	5.000
18.170	11.000
18.180	13.000
18.190	9.000
18.200	8.000
18.210	9.000
18.220	7.000
18.230	13.000
18.240	6.000
18.250	7.000
18.260	10.000
18.270	8.000
18.280	6.000
18.290	7.000
18.300	10.000
18.310	8.000
18.320	11.000
18.330	6.000
18.340	10.000
18.350	8.000
18.360	7.000
18.370	12.000
18.380	7.000
18.390	7.000
18.400	10.000
18.410	8.000
18.420	11.000
18.430	9.000
18.440	10.000
18.450	8.000
18.460	7.000
18.470	12.000
18.480	12.000
18.490	9.000
18.500	8.000
18.510	9.000
18.520	8.000
18.530	10.000
18.540	5.000
18.550	9.000
18.560	15.000
18.570	11.000
18.580	15.000
18.590	11.000
18.600	10.000
18.610	10.000
18.620	9.000
18.630	6.000
18.640	11.000
18.650	7.000
18.660	6.000
18.670	7.000
18.680	3.000
18.690	14.000
18.700	10.000
18.710	12.000
18.720	7.000
18.730	13.000
18.740	15.000
18.750	9.000
18.760	8.000
18.770	5.000
18.780	5.000
18.790	7.000
18.800	9.000
18.810	5.000
18.820	8.000
18.830	12.000
18.840	12.000
18.850	12.000
18.860	14.000
18.870	10.000
18.880	10.000
18.890	10.000
18.900	7.000
18.910	11.000
18.920	8.000
18.930	7.000
18.940	9.000
18.950	9.000
18.960	8.000
18.970	8.000
18.980	9.000
18.990	10.000
19.000	11.000
19.010	6.000
19.020	9.000
19.030	9.000
19.040	11.000
19.050	10.000
19.060	4.000
19.070	5.000
19.080	13.000
19.090	9.000
19.100	6.000
19.110	9.000
19.120	12.000
19.130	8.000
19.140	12.000
19.150	10.000
19.160	9.000
19.170	8.000
19.180	10.000
19.190	8.000
19.200	8.000
19.210	5.000
19.220	10.000
19.230	11.000
19.240	11.000
19.250	11.000
19.260	6.000
19.270	4.000
19.280	4.000
19.290	9.000
19.300	11.000
19.310	7.000
19.320	5.000
19.330	6.000
19.340	10.000
19.350	8.000
19.360	11.000
19.370	8.000
19.380	7.000
19.390	18.000
19.400	9.000
19.410	7.000
19.420	8.000
19.430	14.000
19.440	13.000
19.450	9.000
19.460	6.000
19.470	10.000
19.480	10.000
19.490	8.000
19.500	14.000
19.510	10.000
19.520	10.000
19.530	9.000
19.540	6.000
19.550	9.000
19.560	13.000
19.570	8.000
19.580	5.000
19.590	9.000
19.600	13.000
19.610	7.000
19.620	9.000
19.630	8.000
19.640	5.000
19.650	4.000
19.660	7.000
19.670	5.000
19.680	8.000
19.690	6.000
19.700	8.000
19.710	6.000
19.720	11.000
19.730	6.000
19.740	5.000
19.750	12.000
19.760	11.000
19.770	9.000
19.780	8.000
19.790	7.000
19.800	10.000
19.810	4.000
19.820	6.000
19.830	9.000
19.840	9.000
19.850	9.000
19.860	9.000
19.870	9.000
19.880	11.000
19.890	6.000
19.900	9.000
19.910	10.000
19.920	11.000
19.930	8.000
19.940	8.000
19.950	11.000
19.960	8.000
19.970	10.000
19.980	7.000
19.990	9.000
20.000	7.000
20.010	11.000
20.020	8.000
20.030	10.000
20.040	10.000
20.050	12.000
20.060	11.000
20.070	6.000
20.080	11.000
20.090	7.000
20.100	8.000
20.110	11.000
20.120	8.000
20.130	9.000
20.140	6.000
20.150	8.000
20.160	8.000
20.170	6.000
20.180	10.000
20.190	10.000
20.200	11.000
20.210	12.000
20.220	4.000
20.230	6.000
20.240	15.000
20.250	8.000
20.260	7.000
20.270	7.000
20.280	9.000
20.290	6.000
20.300	7.000
20.310	8.000
20.320	8.000
20.330	12.000
20.340	14.000
20.350	11.000
20.360	10.000
20.370	6.000
20.380	7.000
20.390	12.000
20.400	9.000
20.410	6.000
20.420	5.000
20.430	7.000
20.440	10.000
20.450	7.000
20.460	10.000
20.470	6.000
20.480	12.000
20.490	4.000
20.500	9.000
20.510	12.000
20.520	5.000
20.530	8.000
20.540	6.000
20.550	10.000
20.560	12.000
20.570	14.000
20.580	7.000
20.590	11.000
20.600	6.000
20.610	4.000
20.620	13.000
20.630	9.000
20.640	9.000
20.650	8.000
20.660	9.000
20.670	12.000
20.680	5.000
20.690	6.000
20.700	7.000
20.710	5.000
20.720	8.000
20.730	7.000
20.740	10.000
20.750	8.000
20.760	8.000
20.770	6.000
20.780	16.000
20.790	8.000
20.800	10.000
20.810	12.000
20.820	11.000
20.830	11.000
20.840	11.000
20.850	8.000
20.860	13.000
20.870	13.000
20.880	13.000
20.890	9.000
20.900	9.000
20.910	4.000
20.920	9.000
20.930	4.000
20.940	7.000
20.950	11.000
20.960	13.000
20.970	8.000
20.980	12.000
20.990	15.000
21.000	7.000
21.010	5.000
21.020	8.000
21.030	7.000
21.040	13.000
21.050	9.000
21.060	7.000
21.070	4.000
21.080	10.000
21.090	13.000
21.100	11.000
21.110	3.000
21.120	9.000
21.130	6.000
21.140	8.000
21.150	8.000
21.160	5.000
21.170	10.000
21.180	6.000
21.190	6.000
21.200	3.000
21.210	6.000
21.220	10.000
21.230	8.000
21.240	7.000
21.250	7.000
21.260	12.000
21.270	11.000
21.280	11.000
21.290	5.000
21.300	3.000
21.310	5.000
21.320	11.000
21.330	9.000
21.340	6.000
21.350	6.000
21.360	9.000
21.370	10.000
21.380	5.000
21.390	13.000
21.400	6.000
21.410	10.000
21.420	11.000
21.430	9.000
21.440	10.000
21.450	9.000
21.460	8.000
21.470	5.000
21.480	7.000
21.490	8.000
21.500	5.000
21.510	6.000
21.520	0.000
21.530	6.000
21.540	8.000
21.550	7.000
21.560	3.000
21.570	11.000
21.580	3.000
21.590	7.000
21.600	4.000
21.610	8.000
21.620	9.000
21.630	11.000
21.640	9.000
21.650	7.000
21.660	10.000
21.670	7.000
21.680	9.000
21.690	8.000
21.700	7.000
21.710	10.000
21.720	7.000
21.730	13.000
21.740	9.000
21.750	9.000
21.760	3.000
21.770	8.000
21.780	4.000
21.790	11.000
21.800	9.000
21.810	5.000
21.820	11.000
21.830	6.000
21.840	10.000
21.850	9.000
21.860	8.000
21.870	14.000
21.880	11.000
21.890	9.000
21.900	5.000
21.910	9.000
21.920	12.000
21.930	5.000
21.940	11.000
21.950	7.000
21.960	9.000
21.970	11.000
21.980	10.000
21.990	6.000
22.000	9.000
22.010	11.000
22.020	15.000
22.030	10.000
22.040	9.000
22.050	11.000
22.060	9.000
22.070	9.000
22.080	7.000
22.090	12.000
22.100	6.000
22.110	3.000
22.120	6.000
22.130	10.000
22.140	8.000
22.150	13.000
22.160	11.000
22.170	6.000
22.180	6.000
22.190	10.000
22.200	5.000
22.210	6.000
22.220	11.000
22.230	10.000
22.240	8.000
22.250	13.000
22.260	3.000
22.270	7.000
22.280	8.000
22.290	10.000
22.300	3.000
22.310	11.000
22.320	7.000
22.330	7.000
22.340	13.000
22.350	9.000
22.360	9.000
22.370	5.000
22.380	8.000
22.390	9.000
22.400	12.000
22.410	8.000
22.420	3.000
22.430	8.000
22.440	1.000
22.450	7.000
22.460	7.000
22.470	11.000
22.480	9.000
22.490	3.000
22.500	6.000
22.510	13.000
22.520	11.000
22.530	7.000
22.540	12.000
22.550	12.000
22.560	15.000
22.570	11.000
22.580	7.000
22.590	7.000
22.600	7.000
22.610	9.000
22.620	6.000
22.630	9.000
22.640	11.000
22.650	7.000
22.660	7.000
22.670	10.000
22.680	9.000
22.690	7.000
22.700	9.000
22.710	9.000
22.720	12.000
22.730	10.000
22.740	7.000
22.750	10.000
22.760	10.000
22.770	6.000
22.780	9.000
22.790	8.000
22.800	8.000
22.810	6.000
22.820	11.000
22.830	12.000
22.840	5.000
22.850	7.000
22.860	15.000
22.870	7.000
22.880	5.000
22.890	7.000
22.900	6.000
22.910	11.000
22.920	13.000
22.930	6.000
22.940	14.000
22.950	8.000
22.960	6.000
22.970	8.000
22.980	6.000
22.990	9.000
23.000	12.000
23.010	6.000
23.020	18.000
23.030	11.000
23.040	13.000
23.050	15.000
23.060	17.000
23.070	8.000
23.080	15.000
23.090	18.000
23.100	19.000
23.110	19.000
23.120	21.000
23.130	24.000
23.140	27.000
23.150	23.000
23.160	17.000
23.170	15.000
23.180	10.000
23.190	11.000
23.200	20.000
23.210	10.000
23.220	9.000
23.230	10.000
23.240	9.000
23.250	8.000
23.260	11.000
23.270	9.000
23.280	6.000
23.290	12.000
23.300	9.000
23.310	8.000
23.320	11.000
23.330	12.000
23.340	7.000
23.350	12.000
23.360	12.000
23.370	12.000
23.380	14.000
23.390	12.000
23.400	7.000
23.410	12.000
23.420	7.000
23.430	7.000
23.440	7.000
23.450	17.000
23.460	9.000
23.470	14.000
23.480	10.000
23.490	11.000
23.500	10.000
23.510	7.000
23.520	11.000
23.530	11.000
23.540	9.000
23.550	7.000
23.560	7.000
23.570	8.000
23.580	8.000
23.590	11.000
23.600	5.000
23.610	9.000
23.620	7.000
23.630	14.000
23.640	6.000
23.650	9.000
23.660	2.000
23.670	10.000
23.680	12.000
23.690	3.000
23.700	7.000
23.710	13.000
23.720	5.000
23.730	12.000
23.740	10.000
23.750	6.000
23.760	13.000
23.770	7.000
23.780	10.000
23.790	4.000
23.800	14.000
23.810	9.000
23.820	3.000
23.830	10.000
23.840	9.000
23.850	10.000
23.860	8.000
23.870	11.000
23.880	11.000
23.890	7.000
23.900	11.000
23.910	11.000
23.920	7.000
23.930	10.000
23.940	11.000
23.950	9.000
23.960	7.000
23.970	7.000
23.980	1.000
23.990	6.000
24.000	12.000
24.010	10.000
24.020	9.000
24.030	4.000
24.040	7.000
24.050	11.000
24.060	7.000
24.070	5.000
24.080	10.000
24.090	9.000
24.100	6.000
24.110	7.000
24.120	10.000
24.130	13.000
24.140	6.000
24.150	3.000
24.160	3.000
24.170	8.000
24.180	11.000
24.190	8.000
24.200	7.000
24.210	7.000
24.220	11.000
24.230	11.000
24.240	7.000
24.250	6.000
24.260	5.000
24.270	7.000
24.280	17.000
24.290	9.000
24.300	12.000
24.310	10.000
24.320	5.000
24.330	6.000
24.340	11.000
24.350	10.000
24.360	7.000
24.370	6.000
24.380	7.000
24.390	6.000
24.400	8.000
24.410	9.000
24.420	11.000
24.430	6.000
24.440	7.000
24.450	5.000
24.460	3.000
24.470	2.000
24.480	9.000
24.490	12.000
24.500	10.000
24.510	7.000
24.520	9.000
24.530	7.000
24.540	10.000
24.550	10.000
24.560	8.000
24.570	9.000
24.580	10.000
24.590	10.000
24.600	5.000
24.610	11.000
24.620	13.000
24.630	4.000
24.640	9.000
24.650	10.000
24.660	11.000
24.670	4.000
24.680	9.000
24.690	10.000
24.700	9.000
24.710	8.000
24.720	8.000
24.730	14.000
24.740	7.000
24.750	6.000
24.760	12.000
24.770	12.000
24.780	12.000
24.790	15.000
24.800	7.000
24.810	16.000
24.820	13.000
24.830	14.000
24.840	15.000
24.850	5.000
24.860	18.000
24.870	12.000
24.880	11.000
24.890	11.000
24.900	10.000
24.910	9.000
24.920	14.000
24.930	13.000
24.940	11.000
24.950	12.000
24.960	7.000
24.970	16.000
24.980	13.000
24.990	10.000
25.000	13.000
25.010	13.000
25.020	15.000
25.030	6.000
25.040	14.000
25.050	11.000
25.060	16.000
25.070	15.000
25.080	12.000
25.090	6.000
25.100	13.000
25.110	10.000
25.120	7.000
25.130	14.000
25.140	6.000
25.150	12.000
25.160	15.000
25.170	11.000
25.180	10.000
25.190	12.000
25.200	7.000
25.210	12.000
25.220	11.000
25.230	13.000
25.240	11.000
25.250	11.000
25.260	16.000
25.270	15.000
25.280	16.000
25.290	12.000
25.300	25.000
25.310	10.000
25.320	14.000
25.330	15.000
25.340	9.000
25.350	13.000
25.360	21.000
25.370	17.000
25.380	21.000
25.390	22.000
25.400	19.000
25.410	19.000
25.420	22.000
25.430	27.000
25.440	27.000
25.450	14.000
25.460	20.000
25.470	32.000
25.480	34.000
25.490	34.000
25.500	41.000
25.510	54.000
25.520	74.000
25.530	77.000
25.540	91.000
25.550	118.000
25.560	134.000
25.570	149.000
25.580	204.000
25.590	251.000
25.600	370.000
25.610	492.000
25.620	660.000
25.630	990.000
25.640	1132.000
25.650	1065.000
25.660	744.000
25.670	596.000
25.680	497.000
25.690	532.000
25.700	629.000
25.710	591.000
25.720	486.000
25.730	318.000
25.740	203.000
25.750	137.000
25.760	134.000
25.770	94.000
25.780	87.000
25.790	73.000
25.800	50.000
25.810	41.000
25.820	48.000
25.830	36.000
25.840	34.000
25.850	33.000
25.860	45.000
25.870	26.000
25.880	22.000
25.890	22.000
25.900	29.000
25.910	23.000
25.920	26.000
25.930	23.000
25.940	8.000
25.950	19.000
25.960	18.000
25.970	11.000
25.980	18.000
25.990	15.000
26.000	13.000
26.010	13.000
26.020	13.000
26.030	18.000
26.040	14.000
26.050	10.000
26.060	18.000
26.070	18.000
26.080	13.000
26.090	18.000
26.100	19.000
26.110	11.000
26.120	14.000
26.130	5.000
26.140	7.000
26.150	16.000
26.160	14.000
26.170	9.000
26.180	16.000
26.190	8.000
26.200	16.000
26.210	11.000
26.220	12.000
26.230	7.000
26.240	10.000
26.250	12.000
26.260	6.000
26.270	11.000
26.280	10.000
26.290	10.000
26.300	13.000
26.310	15.000
26.320	21.000
26.330	16.000
26.340	11.000
26.350	14.000
26.360	6.000
26.370	13.000
26.380	10.000
26.390	14.000
26.400	12.000
26.410	10.000
26.420	12.000
26.430	7.000
26.440	12.000
26.450	6.000
26.460	13.000
26.470	11.000
26.480	9.000
26.490	4.000
26.500	16.000
26.510	12.000
26.520	8.000
26.530	8.000
26.540	14.000
26.550	13.000
26.560	16.000
26.570	12.000
26.580	15.000
26.590	10.000
26.600	10.000
26.610	7.000
26.620	13.000
26.630	8.000
26.640	11.000
26.650	12.000
26.660	6.000
26.670	12.000
26.680	13.000
26.690	13.000
26.700	5.000
26.710	13.000
26.720	7.000
26.730	9.000
26.740	11.000
26.750	13.000
26.760	13.000
26.770	7.000
26.780	10.000
26.790	9.000
26.800	11.000
26.810	13.000
26.820	5.000
26.830	11.000
26.840	10.000
26.850	11.000
26.860	8.000
26.870	10.000
26.880	20.000
26.890	14.000
26.900	10.000
26.910	9.000
26.920	13.000
26.930	5.000
26.940	9.000
26.950	12.000
26.960	14.000
26.970	12.000
26.980	13.000
26.990	16.000
27.000	12.000
27.010	9.000
27.020	13.000
27.030	12.000
27.040	13.000
27.050	15.000
27.060	18.000
27.070	13.000
27.080	12.000
27.090	8.000
27.100	12.000
27.110	3.000
27.120	5.000
27.130	9.000
27.140	8.000
27.150	10.000
27.160	8.000
27.170	9.000
27.180	8.000
27.190	10.000
27.200	9.000
27.210	10.000
27.220	10.000
27.230	11.000
27.240	13.000
27.250	11.000
27.260	11.000
27.270	9.000
27.280	9.000
27.290	6.000
27.300	14.000
27.310	7.000
27.320	3.000
27.330	7.000
27.340	9.000
27.350	12.000
27.360	6.000
27.370	11.000
27.380	11.000
27.390	9.000
27.400	9.000
27.410	10.000
27.420	10.000
27.430	5.000
27.440	13.000
27.450	3.000
27.460	6.000
27.470	6.000
27.480	8.000
27.490	9.000
27.500	8.000
27.510	3.000
27.520	10.000
27.530	15.000
27.540	11.000
27.550	11.000
27.560	8.000
27.570	10.000
27.580	10.000
27.590	4.000
27.600	9.000
27.610	11.000
27.620	12.000
27.630	8.000
27.640	10.000
27.650	8.000
27.660	8.000
27.670	4.000
27.680	8.000
27.690	11.000
27.700	8.000
27.710	10.000
27.720	10.000
27.730	10.000
27.740	17.000
27.750	12.000
27.760	5.000
27.770	4.000
27.780	8.000
27.790	7.000
27.800	5.000
27.810	8.000
27.820	7.000
27.830	11.000
27.840	9.000
27.850	8.000
27.860	9.000
27.870	11.000
27.880	11.000
27.890	13.000
27.900	6.000
27.910	11.000
27.920	6.000
27.930	8.000
27.940	15.000
27.950	11.000
27.960	12.000
27.970	10.000
27.980	10.000
27.990	12.000
28.000	12.000
28.010	8.000
28.020	7.000
28.030	7.000
28.040	12.000
28.050	13.000
28.060	4.000
28.070	6.000
28.080	9.000
28.090	9.000
28.100	7.000
28.110	9.000
28.120	11.000
28.130	6.000
28.140	13.000
28.150	6.000
28.160	12.000
28.170	7.000
28.180	12.000
28.190	9.000
28.200	10.000
28.210	9.000
28.220	11.000
28.230	12.000
28.240	10.000
28.250	8.000
28.260	6.000
28.270	13.000
28.280	15.000
28.290	10.000
28.300	9.000
28.310	8.000
28.320	13.000
28.330	4.000
28.340	8.000
28.350	9.000
28.360	6.000
28.370	7.000
28.380	11.000
28.390	7.000
28.400	9.000
28.410	8.000
28.420	4.000
28.430	3.000
28.440	12.000
28.450	10.000
28.460	11.000
28.470	11.000
28.480	7.000
28.490	9.000
28.500	7.000
28.510	3.000
28.520	7.000
28.530	4.000
28.540	10.000
28.550	5.000
28.560	8.000
28.570	10.000
28.580	8.000
28.590	13.000
28.600	15.000
28.610	7.000
28.620	9.000
28.630	12.000
28.640	5.000
28.650	12.000
28.660	9.000
28.670	9.000
28.680	8.000
28.690	7.000
28.700	6.000
28.710	9.000
28.720	8.000
28.730	6.000
28.740	8.000
28.750	7.000
28.760	10.000
28.770	9.000
28.780	12.000
28.790	5.000
28.800	8.000
28.810	5.000
28.820	10.000
28.830	10.000
28.840	7.000
28.850	7.000
28.860	8.000
28.870	6.000
28.880	11.000
28.890	6.000
28.900	15.000
28.910	5.000
28.920	4.000
28.930	9.000
28.940	9.000
28.950	10.000
28.960	15.000
28.970	12.000
28.980	10.000
28.990	8.000
29.000	12.000
29.010	11.000
29.020	15.000
29.030	5.000
29.040	12.000
29.050	12.000
29.060	14.000
29.070	5.000
29.080	6.000
29.090	12.000
29.100	9.000
29.110	7.000
29.120	7.000
29.130	4.000
29.140	11.000
29.150	11.000
29.160	13.000
29.170	15.000
29.180	8.000
29.190	7.000
29.200	12.000
29.210	9.000
29.220	6.000
29.230	14.000
29.240	8.000
29.250	9.000
29.260	5.000
29.270	11.000
29.280	11.000
29.290	14.000
29.300	9.000
29.310	7.000
29.320	6.000
29.330	11.000
29.340	8.000
29.350	11.000
29.360	6.000
29.370	3.000
29.380	13.000
29.390	0.000
29.400	5.000
29.410	7.000
29.420	10.000
29.430	8.000
29.440	9.000
29.450	5.000
29.460	7.000
29.470	7.000
29.480	5.000
29.490	8.000
29.500	5.000
29.510	7.000
29.520	10.000
29.530	12.000
29.540	5.000
29.550	6.000
29.560	16.000
29.570	9.000
29.580	5.000
29.590	11.000
29.600	6.000
29.610	10.000
29.620	6.000
29.630	14.000
29.640	8.000
29.650	8.000
29.660	10.000
29.670	11.000
29.680	5.000
29.690	8.000
29.700	11.000
29.710	14.000
29.720	9.000
29.730	7.000
29.740	6.000
29.750	10.000
29.760	7.000
29.770	16.000
29.780	8.000
29.790	7.000
29.800	10.000
29.810	10.000
29.820	8.000
29.830	11.000
29.840	9.000
29.850	9.000
29.860	12.000
29.870	13.000
29.880	6.000
29.890	8.000
29.900	9.000
29.910	12.000
29.920	5.000
29.930	10.000
29.940	10.000
29.950	9.000
29.960	4.000
29.970	4.000
29.980	7.000
29.990	9.000
30.000	7.000
30.010	10.000
30.020	13.000
30.030	8.000
30.040	9.000
30.050	6.000
30.060	12.000
30.070	7.000
30.080	11.000
30.090	8.000
30.100	9.000
30.110	13.000
30.120	6.000
30.130	12.000
30.140	8.000
30.150	9.000
30.160	9.000
30.170	7.000
30.180	11.000
30.190	7.000
30.200	9.000
30.210	8.000
30.220	7.000
30.230	8.000
30.240	5.000
30.250	9.000
30.260	5.000
30.270	5.000
30.280	4.000
30.290	7.000
30.300	6.000
30.310	13.000
30.320	5.000
30.330	8.000
30.340	11.000
30.350	7.000
30.360	11.000
30.370	4.000
30.380	12.000
30.390	7.000
30.400	7.000
30.410	9.000
30.420	9.000
30.430	8.000
30.440	9.000
30.450	5.000
30.460	8.000
30.470	9.000
30.480	7.000
30.490	9.000
30.500	5.000
30.510	16.000
30.520	9.000
30.530	8.000
30.540	5.000
30.550	7.000
30.560	11.000
30.570	12.000
30.580	16.000
30.590	6.000
30.600	7.000
30.610	8.000
30.620	8.000
30.630	6.000
30.640	10.000
30.650	5.000
30.660	7.000
30.670	9.000
30.680	6.000
30.690	8.000
30.700	5.000
30.710	10.000
30.720	5.000
30.730	6.000
30.740	12.000
30.750	7.000
30.760	9.000
30.770	10.000
30.780	11.000
30.790	6.000
30.800	8.000
30.810	8.000
30.820	9.000
30.830	4.000
30.840	8.000
30.850	9.000
30.860	5.000
30.870	5.000
30.880	3.000
30.890	6.000
30.900	12.000
30.910	8.000
30.920	7.000
30.930	5.000
30.940	4.000
30.950	7.000
30.960	11.000
30.970	5.000
30.980	14.000
30.990	9.000
31.000	11.000
31.010	9.000
31.020	5.000
31.030	8.000
31.040	5.000
31.050	11.000
31.060	7.000
31.070	12.000
31.080	11.000
31.090	1.000
31.100	9.000
31.110	6.000
31.120	8.000
31.130	8.000
31.140	8.000
31.150	3.000
31.160	8.000
31.170	5.000
31.180	8.000
31.190	8.000
31.200	5.000
31.210	7.000
31.220	11.000
31.230	8.000
31.240	11.000
31.250	3.000
31.260	9.000
31.270	13.000
31.280	11.000
31.290	10.000
31.300	7.000
31.310	9.000
31.320	9.000
31.330	9.000
31.340	8.000
31.350	12.000
31.360	5.000
31.370	8.000
31.380	10.000
31.390	6.000
31.400	12.000
31.410	2.000
31.420	5.000
31.430	6.000
31.440	4.000
31.450	7.000
31.460	12.000
31.470	13.000
31.480	12.000
31.490	6.000
31.500	10.000
31.510	12.000
31.520	6.000
31.530	8.000
31.540	8.000
31.550	5.000
31.560	4.000
31.570	4.000
31.580	7.000
31.590	10.000
31.600	7.000
31.610	15.000
31.620	7.000
31.630	10.000
31.640	10.000
31.650	10.000
31.660	9.000
31.670	16.000
31.680	21.000
31.690	21.000
31.700	20.000
31.710	20.000
31.720	31.000
31.730	33.000
31.740	30.000
31.750	34.000
31.760	22.000
31.770	15.000
31.780	15.000
31.790	16.000
31.800	8.000
31.810	12.000
31.820	6.000
31.830	11.000
31.840	7.000
31.850	7.000
31.860	14.000
31.870	9.000
31.880	4.000
31.890	12.000
31.900	10.000
31.910	6.000
31.920	7.000
31.930	14.000
31.940	9.000
31.950	10.000
31.960	13.000
31.970	4.000
31.980	5.000
31.990	5.000
32.000	12.000
32.010	9.000
32.020	5.000
32.030	5.000
32.040	6.000
32.050	2.000
32.060	4.000
32.070	3.000
32.080	10.000
32.090	5.000
32.100	6.000
32.110	3.000
32.120	12.000
32.130	9.000
32.140	6.000
32.150	9.000
32.160	7.000
32.170	9.000
32.180	6.000
32.190	13.000
32.200	8.000
32.210	12.000
32.220	8.000
32.230	10.000
32.240	6.000
32.250	7.000
32.260	11.000
32.270	9.000
32.280	12.000
32.290	9.000
32.300	10.000
32.310	7.000
32.320	8.000
32.330	10.000
32.340	8.000
32.350	8.000
32.360	8.000
32.370	12.000
32.380	5.000
32.390	6.000
32.400	4.000
32.410	7.000
32.420	9.000
32.430	10.000
32.440	3.000
32.450	11.000
32.460	13.000
32.470	7.000
32.480	7.000
32.490	10.000
32.500	6.000
32.510	11.000
32.520	7.000
32.530	6.000
32.540	5.000
32.550	9.000
32.560	14.000
32.570	4.000
32.580	4.000
32.590	9.000
32.600	5.000
32.610	11.000
32.620	9.000
32.630	8.000
32.640	6.000
32.650	10.000
32.660	7.000
32.670	7.000
32.680	9.000
32.690	6.000
32.700	6.000
32.710	5.000
32.720	6.000
32.730	5.000
32.740	5.000
32.750	4.000
32.760	6.000
32.770	11.000
32.780	11.000
32.790	11.000
32.800	12.000
32.810	7.000
32.820	7.000
32.830	3.000
32.840	9.000
32.850	5.000
32.860	13.000
32.870	7.000
32.880	8.000
32.890	6.000
32.900	4.000
32.910	4.000
32.920	10.000
32.930	9.000
32.940	5.000
32.950	8.000
32.960	10.000
32.970	5.000
32.980	7.000
32.990	7.000
33.000	8.000
33.010	5.000
33.020	6.000
33.030	9.000
33.040	12.000
33.050	12.000
33.060	5.000
33.070	9.000
33.080	9.000
33.090	9.000
33.100	8.000
33.110	6.000
33.120	6.000
33.130	6.000
33.140	7.000
33.150	7.000
33.160	4.000
33.170	3.000
33.180	9.000
33.190	9.000
33.200	11.000
33.210	11.000
33.220	11.000
33.230	11.000
33.240	5.000
33.250	11.000
33.260	3.000
33.270	9.000
33.280	11.000
33.290	11.000
33.300	6.000
33.310	10.000
33.320	5.000
33.330	12.000
33.340	4.000
33.350	11.000
33.360	11.000
33.370	8.000
33.380	7.000
33.390	3.000
33.400	7.000
33.410	6.000
33.420	9.000
33.430	9.000
33.440	8.000
33.450	6.000
33.460	6.000
33.470	13.000
33.480	9.000
33.490	7.000
33.500	8.000
33.510	4.000
33.520	12.000
33.530	8.000
33.540	10.000
33.550	10.000
33.560	10.000
33.570	9.000
33.580	4.000
33.590	7.000
33.600	4.000
33.610	12.000
33.620	8.000
33.630	7.000
33.640	7.000
33.650	7.000
33.660	8.000
33.670	7.000
33.680	10.000
33.690	7.000
33.700	7.000
33.710	6.000
33.720	9.000
33.730	10.000
33.740	8.000
33.750	5.000
33.760	7.000
33.770	8.000
33.780	9.000
33.790	12.000
33.800	8.000
33.810	8.000
33.820	11.000
33.830	13.000
33.840	6.000
33.850	9.000
33.860	11.000
33.870	8.000
33.880	6.000
33.890	10.000
33.900	12.000
33.910	9.000
33.920	12.000
33.930	11.000
33.940	12.000
33.950	7.000
33.960	8.000
33.970	12.000
33.980	11.000
33.990	13.000
34.000	14.000
34.010	18.000
34.020	14.000
34.030	10.000
34.040	13.000
34.050	17.000
34.060	16.000
34.070	26.000
34.080	14.000
34.090	24.000
34.100	19.000
34.110	22.000
34.120	16.000
34.130	9.000
34.140	14.000
34.150	16.000
34.160	7.000
34.170	11.000
34.180	7.000
34.190	11.000
34.200	11.000
34.210	15.000
34.220	15.000
34.230	16.000
34.240	8.000
34.250	11.000
34.260	12.000
34.270	5.000
34.280	7.000
34.290	11.000
34.300	12.000
34.310	9.000
34.320	15.000
34.330	13.000
34.340	13.000
34.350	13.000
34.360	11.000
34.370	12.000
34.380	11.000
34.390	5.000
34.400	9.000
34.410	13.000
34.420	15.000
34.430	15.000
34.440	14.000
34.450	7.000
34.460	4.000
34.470	9.000
34.480	14.000
34.490	11.000
34.500	10.000
34.510	14.000
34.520	15.000
34.530	19.000
34.540	11.000
34.550	10.000
34.560	10.000
34.570	13.000
34.580	7.000
34.590	19.000
34.600	12.000
34.610	11.000
34.620	10.000
34.630	16.000
34.640	6.000
34.650	12.000
34.660	12.000
34.670	9.000
34.680	18.000
34.690	16.000
34.700	10.000
34.710	11.000
34.720	21.000
34.730	9.000
34.740	18.000
34.750	11.000
34.760	8.000
34.770	11.000
34.780	15.000
34.790	16.000
34.800	12.000
34.810	8.000
34.820	20.000
34.830	23.000
34.840	15.000
34.850	17.000
34.860	16.000
34.870	15.000
34.880	19.000
34.890	20.000
34.900	18.000
34.910	21.000
34.920	19.000
34.930	29.000
34.940	29.000
34.950	21.000
34.960	25.000
34.970	28.000
34.980	25.000
34.990	26.000
35.000	37.000
35.010	45.000
35.020	42.000
35.030	51.000
35.040	60.000
35.050	57.000
35.060	65.000
35.070	73.000
35.080	83.000
35.090	86.000
35.100	96.000
35.110	114.000
35.120	160.000
35.130	185.000
35.140	210.000
35.150	283.000
35.160	380.000
35.170	448.000
35.180	598.000
35.190	839.000
35.200	1008.000
35.210	1159.000
35.220	1075.000
35.230	892.000
35.240	651.000
35.250	538.000
35.260	465.000
35.270	467.000
35.280	562.000
35.290	592.000
35.300	653.000
35.310	603.000
35.320	492.000
35.330	339.000
35.340	240.000
35.350	178.000
35.360	134.000
35.370	124.000
35.380	78.000
35.390	79.000
35.400	73.000
35.410	71.000
35.420	53.000
35.430	54.000
35.440	46.000
35.450	49.000
35.460	47.000
35.470	36.000
35.480	41.000
35.490	28.000
35.500	30.000
35.510	30.000
35.520	27.000
35.530	31.000
35.540	21.000
35.550	19.000
35.560	27.000
35.570	25.000
35.580	32.000
35.590	15.000
35.600	16.000
35.610	21.000
35.620	26.000
35.630	24.000
35.640	14.000
35.650	10.000
35.660	16.000
35.670	14.000
35.680	11.000
35.690	16.000
35.700	12.000
35.710	19.000
35.720	23.000
35.730	16.000
35.740	9.000
35.750	25.000
35.760	19.000
35.770	8.000
35.780	17.000
35.790	19.000
35.800	14.000
35.810	14.000
35.820	12.000
35.830	10.000
35.840	13.000
35.850	22.000
35.860	10.000
35.870	8.000
35.880	10.000
35.890	12.000
35.900	10.000
35.910	9.000
35.920	7.000
35.930	10.000
35.940	13.000
35.950	13.000
35.960	10.000
35.970	2.000
35.980	13.000
35.990	14.000
36.000	13.000
36.010	12.000
36.020	9.000
36.030	16.000
36.040	14.000
36.050	7.000
36.060	6.000
36.070	12.000
36.080	8.000
36.090	11.000
36.100	11.000
36.110	9.000
36.120	11.000
36.130	14.000
36.140	12.000
36.150	16.000
36.160	15.000
36.170	5.000
36.180	9.000
36.190	9.000
36.200	12.000
36.210	7.000
36.220	8.000
36.230	13.000
36.240	13.000
36.250	22.000
36.260	10.000
36.270	10.000
36.280	8.000
36.290	13.000
36.300	11.000
36.310	9.000
36.320	14.000
36.330	11.000
36.340	19.000
36.350	11.000
36.360	7.000
36.370	6.000
36.380	4.000
36.390	8.000
36.400	6.000
36.410	6.000
36.420	7.000
36.430	15.000
36.440	12.000
36.450	6.000
36.460	14.000
36.470	10.000
36.480	13.000
36.490	10.000
36.500	13.000
36.510	15.000
36.520	13.000
36.530	12.000
36.540	9.000
36.550	14.000
36.560	11.000
36.570	16.000
36.580	11.000
36.590	11.000
36.600	10.000
36.610	8.000
36.620	4.000
36.630	11.000
36.640	11.000
36.650	11.000
36.660	7.000
36.670	10.000
36.680	10.000
36.690	10.000
36.700	12.000
36.710	16.000
36.720	7.000
36.730	8.000
36.740	12.000
36.750	7.000
36.760	13.000
36.770	16.000
36.780	10.000
36.790	12.000
36.800	12.000
36.810	7.000
36.820	13.000
36.830	10.000
36.840	11.000
36.850	5.000
36.860	9.000
36.870	15.000
36.880	11.000
36.890	14.000
36.900	5.000
36.910	8.000
36.920	10.000
36.930	6.000
36.940	10.000
36.950	11.000
36.960	9.000
36.970	14.000
36.980	12.000
36.990	10.000
37.000	6.000
37.010	9.000
37.020	11.000
37.030	14.000
37.040	9.000
37.050	10.000
37.060	16.000
37.070	12.000
37.080	11.000
37.090	10.000
37.100	10.000
37.110	6.000
37.120	7.000
37.130	6.000
37.140	9.000
37.150	16.000
37.160	5.000
37.170	13.000
37.180	9.000
37.190	8.000
37.200	10.000
37.210	10.000
37.220	8.000
37.230	10.000
37.240	13.000
37.250	13.000
37.260	11.000
37.270	10.000
37.280	10.000
37.290	9.000
37.300	10.000
37.310	9.000
37.320	14.000
37.330	9.000
37.340	12.000
37.350	11.000
37.360	14.000
37.370	10.000
37.380	13.000
37.390	13.000
37.400	23.000
37.410	11.000
37.420	20.000
37.430	6.000
37.440	16.000
37.450	9.000
37.460	8.000
37.470	9.000
37.480	10.000
37.490	16.000
37.500	12.000
37.510	14.000
37.520	15.000
37.530	12.000
37.540	8.000
37.550	16.000
37.560	11.000
37.570	24.000
37.580	25.000
37.590	7.000
37.600	23.000
37.610	18.000
37.620	31.000
37.630	32.000
37.640	27.000
37.650	31.000
37.660	31.000
37.670	38.000
37.680	40.000
37.690	38.000
37.700	49.000
37.710	53.000
37.720	56.000
37.730	62.000
37.740	78.000
37.750	73.000
37.760	81.000
37.770	100.000
37.780	138.000
37.790	184.000
37.800	216.000
37.810	311.000
37.820	459.000
37.830	615.000
37.840	832.000
37.850	707.000
37.860	485.000
37.870	270.000
37.880	209.000
37.890	216.000
37.900	205.000
37.910	211.000
37.920	332.000
37.930	398.000
37.940	458.000
37.950	359.000
37.960	223.000
37.970	144.000
37.980	103.000
37.990	88.000
38.000	59.000
38.010	58.000
38.020	49.000
38.030	51.000
38.040	36.000
38.050	37.000
38.060	38.000
38.070	37.000
38.080	25.000
38.090	32.000
38.100	28.000
38.110	25.000
38.120	31.000
38.130	14.000
38.140	21.000
38.150	23.000
38.160	17.000
38.170	19.000
38.180	18.000
38.190	15.000
38.200	16.000
38.210	13.000
38.220	21.000
38.230	20.000
38.240	24.000
38.250	10.000
38.260	14.000
38.270	12.000
38.280	19.000
38.290	15.000
38.300	14.000
38.310	14.000
38.320	14.000
38.330	11.000
38.340	15.000
38.350	19.000
38.360	10.000
38.370	16.000
38.380	16.000
38.390	12.000
38.400	13.000
38.410	11.000
38.420	11.000
38.430	15.000
38.440	12.000
38.450	11.000
38.460	8.000
38.470	12.000
38.480	9.000
38.490	11.000
38.500	8.000
38.510	13.000
38.520	9.000
38.530	10.000
38.540	8.000
38.550	13.000
38.560	14.000
38.570	6.000
38.580	10.000
38.590	11.000
38.600	9.000
38.610	7.000
38.620	13.000
38.630	11.000
38.640	8.000
38.650	16.000
38.660	5.000
38.670	12.000
38.680	9.000
38.690	9.000
38.700	6.000
38.710	15.000
38.720	9.000
38.730	9.000
38.740	14.000
38.750	10.000
38.760	14.000
38.770	6.000
38.780	17.000
38.790	14.000
38.800	7.000
38.810	6.000
38.820	11.000
38.830	9.000
38.840	14.000
38.850	10.000
38.860	10.000
38.870	14.000
38.880	7.000
38.890	14.000
38.900	7.000
38.910	16.000
38.920	13.000
38.930	15.000
38.940	13.000
38.950	9.000
38.960	14.000
38.970	11.000
38.980	14.000
38.990	21.000
39.000	15.000
39.010	12.000
39.020	12.000
39.030	14.000
39.040	24.000
39.050	18.000
39.060	23.000
39.070	28.000
39.080	32.000
39.090	17.000
39.100	17.000
39.110	13.000
39.120	16.000
39.130	11.000
39.140	12.000
39.150	6.000
39.160	6.000
39.170	17.000
39.180	11.000
39.190	11.000
39.200	13.000
39.210	16.000
39.220	3.000
39.230	15.000
39.240	9.000
39.250	8.000
39.260	6.000
39.270	10.000
39.280	16.000
39.290	12.000
39.300	5.000
39.310	8.000
39.320	6.000
39.330	10.000
39.340	5.000
39.350	11.000
39.360	14.000
39.370	11.000
39.380	5.000
39.390	9.000
39.400	11.000
39.410	6.000
39.420	4.000
39.430	4.000
39.440	12.000
39.450	6.000
39.460	7.000
39.470	6.000
39.480	10.000
39.490	10.000
39.500	12.000
39.510	11.000
39.520	11.000
39.530	8.000
39.540	7.000
39.550	7.000
39.560	9.000
39.570	8.000
39.580	5.000
39.590	7.000
39.600	9.000
39.610	11.000
39.620	6.000
39.630	8.000
39.640	9.000
39.650	5.000
39.660	8.000
39.670	4.000
39.680	8.000
39.690	10.000
39.700	10.000
39.710	10.000
39.720	11.000
39.730	11.000
39.740	9.000
39.750	6.000
39.760	14.000
39.770	7.000
39.780	13.000
39.790	6.000
39.800	14.000
39.810	13.000
39.820	8.000
39.830	11.000
39.840	8.000
39.850	12.000
39.860	10.000
39.870	12.000
39.880	8.000
39.890	5.000
39.900	11.000
39.910	9.000
39.920	9.000
39.930	11.000
39.940	9.000
39.950	9.000
39.960	12.000
39.970	9.000
39.980	10.000
39.990	11.000
40.000	12.000
40.010	11.000
40.020	9.000
40.030	7.000
40.040	8.000
40.050	5.000
40.060	11.000
40.070	6.000
40.080	10.000
40.090	13.000
40.100	5.000
40.110	11.000
40.120	10.000
40.130	10.000
40.140	10.000
40.150	14.000
40.160	5.000
40.170	3.000
40.180	8.000
40.190	12.000
40.200	15.000
40.210	7.000
40.220	11.000
40.230	13.000
40.240	9.000
40.250	5.000
40.260	10.000
40.270	7.000
40.280	8.000
40.290	9.000
40.300	12.000
40.310	14.000
40.320	7.000
40.330	12.000
40.340	12.000
40.350	10.000
40.360	7.000
40.370	16.000
40.380	7.000
40.390	9.000
40.400	6.000
40.410	9.000
40.420	6.000
40.430	6.000
40.440	10.000
40.450	6.000
40.460	9.000
40.470	6.000
40.480	17.000
40.490	8.000
40.500	16.000
40.510	8.000
40.520	7.000
40.530	6.000
40.540	8.000
40.550	14.000
40.560	10.000
40.570	8.000
40.580	7.000
40.590	6.000
40.600	9.000
40.610	4.000
40.620	9.000
40.630	7.000
40.640	11.000
40.650	6.000
40.660	7.000
40.670	5.000
40.680	15.000
40.690	11.000
40.700	12.000
40.710	7.000
40.720	11.000
40.730	6.000
40.740	11.000
40.750	6.000
40.760	11.000
40.770	8.000
40.780	6.000
40.790	9.000
40.800	14.000
40.810	8.000
40.820	9.000
40.830	9.000
40.840	7.000
40.850	9.000
40.860	5.000
40.870	4.000
40.880	8.000
40.890	6.000
40.900	7.000
40.910	10.000
40.920	7.000
40.930	9.000
40.940	10.000
40.950	7.000
40.960	10.000
40.970	14.000
40.980	7.000
40.990	5.000
41.000	6.000
41.010	9.000
41.020	7.000
41.030	13.000
41.040	10.000
41.050	7.000
41.060	5.000
41.070	12.000
41.080	17.000
41.090	4.000
41.100	3.000
41.110	7.000
41.120	15.000
41.130	7.000
41.140	5.000
41.150	10.000
41.160	8.000
41.170	5.000
41.180	11.000
41.190	7.000
41.200	3.000
41.210	12.000
41.220	7.000
41.230	5.000
41.240	8.000
41.250	6.000
41.260	12.000
41.270	13.000
41.280	10.000
41.290	7.000
41.300	8.000
41.310	9.000
41.320	8.000
41.330	10.000
41.340	6.000
41.350	7.000
41.360	9.000
41.370	8.000
41.380	12.000
41.390	8.000
41.400	8.000
41.410	14.000
41.420	15.000
41.430	5.000
41.440	8.000
41.450	7.000
41.460	8.000
41.470	12.000
41.480	10.000
41.490	7.000
41.500	9.000
41.510	9.000
41.520	8.000
41.530	5.000
41.540	9.000
41.550	14.000
41.560	10.000
41.570	9.000
41.580	12.000
41.590	10.000
41.600	12.000
41.610	10.000
41.620	13.000
41.630	9.000
41.640	8.000
41.650	11.000
41.660	18.000
41.670	12.000
41.680	13.000
41.690	12.000
41.700	12.000
41.710	9.000
41.720	15.000
41.730	13.000
41.740	20.000
41.750	15.000
41.760	18.000
41.770	22.000
41.780	16.000
41.790	12.000
41.800	14.000
41.810	7.000
41.820	14.000
41.830	12.000
41.840	17.000
41.850	19.000
41.860	12.000
41.870	19.000
41.880	17.000
41.890	9.000
41.900	7.000
41.910	12.000
41.920	16.000
41.930	12.000
41.940	12.000
41.950	10.000
41.960	7.000
41.970	13.000
41.980	14.000
41.990	12.000
42.000	6.000
42.010	9.000
42.020	11.000
42.030	12.000
42.040	13.000
42.050	12.000
42.060	14.000
42.070	12.000
42.080	14.000
42.090	8.000
42.100	12.000
42.110	10.000
42.120	10.000
42.130	10.000
42.140	8.000
42.150	17.000
42.160	10.000
42.170	17.000
42.180	12.000
42.190	6.000
42.200	7.000
42.210	10.000
42.220	8.000
42.230	13.000
42.240	9.000
42.250	12.000
42.260	10.000
42.270	10.000
42.280	13.000
42.290	11.000
42.300	12.000
42.310	14.000
42.320	16.000
42.330	9.000
42.340	11.000
42.350	10.000
42.360	11.000
42.370	17.000
42.380	8.000
42.390	5.000
42.400	8.000
42.410	7.000
42.420	12.000
42.430	6.000
42.440	12.000
42.450	11.000
42.460	10.000
42.470	10.000
42.480	10.000
42.490	16.000
42.500	20.000
42.510	9.000
42.520	16.000
42.530	9.000
42.540	15.000
42.550	12.000
42.560	9.000
42.570	13.000
42.580	6.000
42.590	13.000
42.600	16.000
42.610	25.000
42.620	9.000
42.630	9.000
42.640	9.000
42.650	12.000
42.660	12.000
42.670	13.000
42.680	13.000
42.690	12.000
42.700	10.000
42.710	13.000
42.720	14.000
42.730	12.000
42.740	11.000
42.750	12.000
42.760	14.000
42.770	14.000
42.780	14.000
42.790	20.000
42.800	21.000
42.810	18.000
42.820	10.000
42.830	11.000
42.840	12.000
42.850	16.000
42.860	17.000
42.870	12.000
42.880	10.000
42.890	13.000
42.900	17.000
42.910	15.000
42.920	14.000
42.930	15.000
42.940	15.000
42.950	16.000
42.960	13.000
42.970	24.000
42.980	16.000
42.990	26.000
43.000	19.000
43.010	17.000
43.020	12.000
43.030	29.000
43.040	23.000
43.050	21.000
43.060	18.000
43.070	30.000
43.080	29.000
43.090	32.000
43.100	25.000
43.110	28.000
43.120	21.000
43.130	37.000
43.140	30.000
43.150	23.000
43.160	31.000
43.170	46.000
43.180	36.000
43.190	67.000
43.200	43.000
43.210	53.000
43.220	58.000
43.230	57.000
43.240	79.000
43.250	79.000
43.260	88.000
43.270	85.000
43.280	87.000
43.290	113.000
43.300	136.000
43.310	166.000
43.320	162.000
43.330	204.000
43.340	234.000
43.350	294.000
43.360	366.000
43.370	470.000
43.380	581.000
43.390	730.000
43.400	823.000
43.410	862.000
43.420	805.000
43.430	702.000
43.440	603.000
43.450	494.000
43.460	407.000
43.470	382.000
43.480	356.000
43.490	381.000
43.500	417.000
43.510	456.000
43.520	511.000
43.530	483.000
43.540	396.000
43.550	358.000
43.560	267.000
43.570	198.000
43.580	155.000
43.590	93.000
43.600	110.000
43.610	89.000
43.620	91.000
43.630	87.000
43.640	75.000
43.650	58.000
43.660	55.000
43.670	58.000
43.680	48.000
43.690	44.000
43.700	54.000
43.710	47.000
43.720	42.000
43.730	40.000
43.740	33.000
43.750	35.000
43.760	29.000
43.770	28.000
43.780	27.000
43.790	21.000
43.800	22.000
43.810	22.000
43.820	27.000
43.830	23.000
43.840	27.000
43.850	16.000
43.860	13.000
43.870	19.000
43.880	15.000
43.890	17.000
43.900	12.000
43.910	14.000
43.920	20.000
43.930	22.000
43.940	15.000
43.950	16.000
43.960	15.000
43.970	16.000
43.980	25.000
43.990	12.000
44.000	14.000
44.010	12.000
44.020	15.000
44.030	14.000
44.040	12.000
44.050	13.000
44.060	14.000
44.070	16.000
44.080	15.000
44.090	10.000
44.100	14.000
44.110	16.000
44.120	14.000
44.130	13.000
44.140	18.000
44.150	14.000
44.160	18.000
44.170	11.000
44.180	13.000
44.190	13.000
44.200	9.000
44.210	13.000
44.220	8.000
44.230	10.000
44.240	10.000
44.250	12.000
44.260	11.000
44.270	10.000
44.280	15.000
44.290	20.000
44.300	13.000
44.310	12.000
44.320	14.000
44.330	16.000
44.340	7.000
44.350	12.000
44.360	11.000
44.370	17.000
44.380	10.000
44.390	16.000
44.400	5.000
44.410	16.000
44.420	13.000
44.430	8.000
44.440	8.000
44.450	13.000
44.460	15.000
44.470	10.000
44.480	5.000
44.490	11.000
44.500	8.000
44.510	12.000
44.520	11.000
44.530	16.000
44.540	5.000
44.550	8.000
44.560	13.000
44.570	9.000
44.580	11.000
44.590	12.000
44.600	19.000
44.610	6.000
44.620	10.000
44.630	12.000
44.640	11.000
44.650	12.000
44.660	6.000
44.670	18.000
44.680	13.000
44.690	9.000
44.700	15.000
44.710	11.000
44.720	5.000
44.730	16.000
44.740	9.000
44.750	12.000
44.760	9.000
44.770	3.000
44.780	8.000
44.790	9.000
44.800	14.000
44.810	9.000
44.820	5.000
44.830	12.000
44.840	11.000
44.850	8.000
44.860	14.000
44.870	8.000
44.880	12.000
44.890	13.000
44.900	9.000
44.910	13.000
44.920	7.000
44.930	17.000
44.940	6.000
44.950	6.000
44.960	11.000
44.970	9.000
44.980	9.000
44.990	4.000
45.000	8.000
45.010	11.000
45.020	14.000
45.030	10.000
45.040	5.000
45.050	7.000
45.060	15.000
45.070	6.000
45.080	7.000
45.090	7.000
45.100	13.000
45.110	7.000
45.120	5.000
45.130	7.000
45.140	10.000
45.150	8.000
45.160	5.000
45.170	9.000
45.180	8.000
45.190	11.000
45.200	10.000
45.210	7.000
45.220	11.000
45.230	12.000
45.240	3.000
45.250	5.000
45.260	15.000
45.270	7.000
45.280	8.000
45.290	10.000
45.300	6.000
45.310	8.000
45.320	11.000
45.330	12.000
45.340	8.000
45.350	8.000
45.360	8.000
45.370	13.000
45.380	10.000
45.390	4.000
45.400	4.000
45.410	13.000
45.420	11.000
45.430	1.000
45.440	13.000
45.450	10.000
45.460	9.000
45.470	16.000
45.480	15.000
45.490	8.000
45.500	9.000
45.510	12.000
45.520	6.000
45.530	11.000
45.540	11.000
45.550	11.000
45.560	9.000
45.570	11.000
45.580	12.000
45.590	12.000
45.600	12.000
45.610	9.000
45.620	6.000
45.630	10.000
45.640	11.000
45.650	6.000
45.660	12.000
45.670	14.000
45.680	12.000
45.690	6.000
45.700	12.000
45.710	12.000
45.720	7.000
45.730	14.000
45.740	4.000
45.750	9.000
45.760	9.000
45.770	10.000
45.780	9.000
45.790	11.000
45.800	10.000
45.810	9.000
45.820	11.000
45.830	8.000
45.840	5.000
45.850	13.000
45.860	8.000
45.870	13.000
45.880	10.000
45.890	8.000
45.900	11.000
45.910	6.000
45.920	9.000
45.930	6.000
45.940	7.000
45.950	9.000
45.960	6.000
45.970	7.000
45.980	8.000
45.990	12.000
46.000	14.000
46.010	15.000
46.020	12.000
46.030	7.000
46.040	12.000
46.050	20.000
46.060	6.000
46.070	9.000
46.080	3.000
46.090	10.000
46.100	9.000
46.110	14.000
46.120	16.000
46.130	19.000
46.140	9.000
46.150	10.000
46.160	13.000
46.170	6.000
46.180	17.000
46.190	23.000
46.200	16.000
46.210	18.000
46.220	23.000
46.230	31.000
46.240	31.000
46.250	28.000
46.260	15.000
46.270	12.000
46.280	9.000
46.290	13.000
46.300	13.000
46.310	19.000
46.320	14.000
46.330	15.000
46.340	19.000
46.350	22.000
46.360	21.000
46.370	16.000
46.380	9.000
46.390	13.000
46.400	12.000
46.410	11.000
46.420	17.000
46.430	15.000
46.440	14.000
46.450	8.000
46.460	9.000
46.470	8.000
46.480	9.000
46.490	14.000
46.500	9.000
46.510	16.000
46.520	14.000
46.530	6.000
46.540	8.000
46.550	13.000
46.560	14.000
46.570	13.000
46.580	11.000
46.590	12.000
46.600	7.000
46.610	12.000
46.620	11.000
46.630	10.000
46.640	11.000
46.650	5.000
46.660	8.000
46.670	11.000
46.680	6.000
46.690	6.000
46.700	15.000
46.710	11.000
46.720	12.000
46.730	7.000
46.740	12.000
46.750	9.000
46.760	6.000
46.770	12.000
46.780	11.000
46.790	9.000
46.800	6.000
46.810	17.000
46.820	10.000
46.830	11.000
46.840	6.000
46.850	3.000
46.860	7.000
46.870	8.000
46.880	8.000
46.890	6.000
46.900	6.000
46.910	7.000
46.920	12.000
46.930	15.000
46.940	6.000
46.950	8.000
46.960	15.000
46.970	9.000
46.980	6.000
46.990	18.000
47.000	13.000
47.010	9.000
47.020	13.000
47.030	9.000
47.040	11.000
47.050	11.000
47.060	14.000
47.070	8.000
47.080	13.000
47.090	6.000
47.100	22.000
47.110	11.000
47.120	14.000
47.130	15.000
47.140	10.000
47.150	14.000
47.160	17.000
47.170	23.000
47.180	9.000
47.190	16.000
47.200	17.000
47.210	20.000
47.220	11.000
47.230	18.000
47.240	20.000
47.250	8.000
47.260	19.000
47.270	19.000
47.280	19.000
47.290	8.000
47.300	7.000
47.310	8.000
47.320	8.000
47.330	12.000
47.340	12.000
47.350	8.000
47.360	9.000
47.370	8.000
47.380	12.000
47.390	12.000
47.400	4.000
47.410	4.000
47.420	15.000
47.430	12.000
47.440	13.000
47.450	7.000
47.460	12.000
47.470	12.000
47.480	8.000
47.490	14.000
47.500	11.000
47.510	9.000
47.520	6.000
47.530	10.000
47.540	7.000
47.550	12.000
47.560	10.000
47.570	9.000
47.580	7.000
47.590	10.000
47.600	16.000
47.610	10.000
47.620	13.000
47.630	10.000
47.640	12.000
47.650	13.000
47.660	15.000
47.670	8.000
47.680	6.000
47.690	7.000
47.700	8.000
47.710	13.000
47.720	14.000
47.730	12.000
47.740	7.000
47.750	3.000
47.760	12.000
47.770	8.000
47.780	7.000
47.790	11.000
47.800	3.000
47.810	7.000
47.820	13.000
47.830	4.000
47.840	11.000
47.850	12.000
47.860	11.000
47.870	6.000
47.880	13.000
47.890	5.000
47.900	11.000
47.910	4.000
47.920	11.000
47.930	15.000
47.940	11.000
47.950	6.000
47.960	5.000
47.970	20.000
47.980	13.000
47.990	10.000
48.000	7.000
48.010	12.000
48.020	7.000
48.030	11.000
48.040	14.000
48.050	8.000
48.060	15.000
48.070	12.000
48.080	8.000
48.090	11.000
48.100	7.000
48.110	10.000
48.120	7.000
48.130	9.000
48.140	12.000
48.150	8.000
48.160	12.000
48.170	9.000
48.180	12.000
48.190	10.000
48.200	7.000
48.210	10.000
48.220	11.000
48.230	7.000
48.240	11.000
48.250	17.000
48.260	12.000
48.270	10.000
48.280	13.000
48.290	5.000
48.300	10.000
48.310	10.000
48.320	10.000
48.330	12.000
48.340	11.000
48.350	11.000
48.360	10.000
48.370	11.000
48.380	15.000
48.390	7.000
48.400	10.000
48.410	4.000
48.420	8.000
48.430	9.000
48.440	10.000
48.450	12.000
48.460	5.000
48.470	12.000
48.480	11.000
48.490	14.000
48.500	10.000
48.510	6.000
48.520	7.000
48.530	9.000
48.540	13.000
48.550	10.000
48.560	8.000
48.570	11.000
48.580	9.000
48.590	8.000
48.600	11.000
48.610	12.000
48.620	5.000
48.630	12.000
48.640	13.000
48.650	7.000
48.660	12.000
48.670	9.000
48.680	8.000
48.690	15.000
48.700	12.000
48.710	5.000
48.720	4.000
48.730	12.000
48.740	6.000
48.750	10.000
48.760	6.000
48.770	15.000
48.780	10.000
48.790	7.000
48.800	5.000
48.810	7.000
48.820	9.000
48.830	10.000
48.840	5.000
48.850	10.000
48.860	7.000
48.870	10.000
48.880	8.000
48.890	6.000
48.900	16.000
48.910	9.000
48.920	4.000
48.930	13.000
48.940	9.000
48.950	5.000
48.960	7.000
48.970	9.000
48.980	5.000
48.990	5.000
49.000	8.000
49.010	7.000
49.020	14.000
49.030	13.000
49.040	12.000
49.050	8.000
49.060	10.000
49.070	11.000
49.080	6.000
49.090	11.000
49.100	10.000
49.110	8.000
49.120	2.000
49.130	9.000
49.140	9.000
49.150	11.000
49.160	10.000
49.170	9.000
49.180	6.000
49.190	6.000
49.200	10.000
49.210	9.000
49.220	8.000
49.230	8.000
49.240	16.000
49.250	7.000
49.260	15.000
49.270	12.000
49.280	7.000
49.290	6.000
49.300	11.000
49.310	11.000
49.320	4.000
49.330	5.000
49.340	6.000
49.350	12.000
49.360	2.000
49.370	8.000
49.380	14.000
49.390	14.000
49.400	6.000
49.410	9.000
49.420	8.000
49.430	6.000
49.440	9.000
49.450	11.000
49.460	9.000
49.470	9.000
49.480	9.000
49.490	6.000
49.500	7.000
49.510	6.000
49.520	14.000
49.530	6.000
49.540	11.000
49.550	10.000
49.560	9.000
49.570	7.000
49.580	14.000
49.590	12.000
49.600	4.000
49.610	4.000
49.620	9.000
49.630	9.000
49.640	13.000
49.650	10.000
49.660	10.000
49.670	4.000
49.680	9.000
49.690	10.000
49.700	7.000
49.710	6.000
49.720	7.000
49.730	9.000
49.740	9.000
49.750	11.000
49.760	9.000
49.770	9.000
49.780	8.000
49.790	8.000
49.800	6.000
49.810	10.000
49.820	13.000
49.830	3.000
49.840	12.000
49.850	6.000
49.860	6.000
49.870	15.000
49.880	7.000
49.890	4.000
49.900	8.000
49.910	5.000
49.920	12.000
49.930	7.000
49.940	9.000
49.950	7.000
49.960	8.000
49.970	11.000
49.980	8.000
49.990	11.000
50.000	11.000
50.010	5.000
50.020	10.000
50.030	6.000
50.040	5.000
50.050	10.000
50.060	6.000
50.070	7.000
50.080	11.000
50.090	5.000
50.100	8.000
50.110	13.000
50.120	8.000
50.130	18.000
50.140	8.000
50.150	6.000
50.160	11.000
50.170	11.000
50.180	6.000
50.190	9.000
50.200	13.000
50.210	6.000
50.220	6.000
50.230	8.000
50.240	10.000
50.250	8.000
50.260	4.000
50.270	11.000
50.280	11.000
50.290	11.000
50.300	10.000
50.310	9.000
50.320	16.000
50.330	10.000
50.340	2.000
50.350	8.000
50.360	10.000
50.370	6.000
50.380	6.000
50.390	10.000
50.400	7.000
50.410	4.000
50.420	6.000
50.430	5.000
50.440	9.000
50.450	11.000
50.460	6.000
50.470	8.000
50.480	9.000
50.490	10.000
50.500	7.000
50.510	6.000
50.520	8.000
50.530	8.000
50.540	12.000
50.550	11.000
50.560	11.000
50.570	15.000
50.580	11.000
50.590	5.000
50.600	11.000
50.610	7.000
50.620	7.000
50.630	11.000
50.640	7.000
50.650	7.000
50.660	11.000
50.670	8.000
50.680	10.000
50.690	7.000
50.700	7.000
50.710	9.000
50.720	9.000
50.730	7.000
50.740	9.000
50.750	11.000
50.760	13.000
50.770	8.000
50.780	18.000
50.790	11.000
50.800	10.000
50.810	10.000
50.820	8.000
50.830	14.000
50.840	8.000
50.850	9.000
50.860	6.000
50.870	10.000
50.880	11.000
50.890	10.000
50.900	7.000
50.910	8.000
50.920	12.000
50.930	10.000
50.940	5.000
50.950	10.000
50.960	12.000
50.970	8.000
50.980	8.000
50.990	4.000
51.000	5.000
51.010	14.000
51.020	5.000
51.030	8.000
51.040	10.000
51.050	10.000
51.060	11.000
51.070	9.000
51.080	9.000
51.090	3.000
51.100	15.000
51.110	9.000
51.120	9.000
51.130	7.000
51.140	8.000
51.150	6.000
51.160	5.000
51.170	5.000
51.180	8.000
51.190	13.000
51.200	6.000
51.210	5.000
51.220	6.000
51.230	6.000
51.240	6.000
51.250	5.000
51.260	6.000
51.270	4.000
51.280	11.000
51.290	7.000
51.300	6.000
51.310	8.000
51.320	12.000
51.330	14.000
51.340	6.000
51.350	16.000
51.360	5.000
51.370	15.000
51.380	9.000
51.390	9.000
51.400	10.000
51.410	6.000
51.420	13.000
51.430	12.000
51.440	3.000
51.450	10.000
51.460	10.000
51.470	14.000
51.480	13.000
51.490	11.000
51.500	16.000
51.510	21.000
51.520	18.000
51.530	14.000
51.540	13.000
51.550	20.000
51.560	18.000
51.570	23.000
51.580	25.000
51.590	21.000
51.600	27.000
51.610	18.000
51.620	14.000
51.630	16.000
51.640	14.000
51.650	13.000
51.660	16.000
51.670	5.000
51.680	10.000
51.690	14.000
51.700	9.000
51.710	13.000
51.720	9.000
51.730	12.000
51.740	13.000
51.750	12.000
51.760	16.000
51.770	15.000
51.780	5.000
51.790	8.000
51.800	16.000
51.810	10.000
51.820	14.000
51.830	10.000
51.840	12.000
51.850	13.000
51.860	18.000
51.870	15.000
51.880	11.000
51.890	7.000
51.900	11.000
51.910	16.000
51.920	13.000
51.930	9.000
51.940	11.000
51.950	14.000
51.960	9.000
51.970	14.000
51.980	11.000
51.990	11.000
52.000	6.000
52.010	9.000
52.020	14.000
52.030	4.000
52.040	17.000
52.050	11.000
52.060	10.000
52.070	13.000
52.080	14.000
52.090	11.000
52.100	14.000
52.110	12.000
52.120	18.000
52.130	12.000
52.140	12.000
52.150	13.000
52.160	14.000
52.170	16.000
52.180	13.000
52.190	14.000
52.200	14.000
52.210	15.000
52.220	17.000
52.230	20.000
52.240	17.000
52.250	15.000
52.260	19.000
52.270	21.000
52.280	18.000
52.290	26.000
52.300	12.000
52.310	21.000
52.320	23.000
52.330	26.000
52.340	26.000
52.350	35.000
52.360	33.000
52.370	25.000
52.380	32.000
52.390	36.000
52.400	28.000
52.410	49.000
52.420	35.000
52.430	31.000
52.440	49.000
52.450	45.000
52.460	53.000
52.470	64.000
52.480	61.000
52.490	62.000
52.500	77.000
52.510	94.000
52.520	93.000
52.530	135.000
52.540	144.000
52.550	157.000
52.560	208.000
52.570	243.000
52.580	317.000
52.590	411.000
52.600	549.000
52.610	612.000
52.620	565.000
52.630	469.000
52.640	352.000
52.650	283.000
52.660	234.000
52.670	163.000
52.680	156.000
52.690	152.000
52.700	156.000
52.710	162.000
52.720	196.000
52.730	240.000
52.740	293.000
52.750	339.000
52.760	327.000
52.770	274.000
52.780	189.000
52.790	170.000
52.800	126.000
52.810	81.000
52.820	93.000
52.830	82.000
52.840	67.000
52.850	54.000
52.860	44.000
52.870	51.000
52.880	34.000
52.890	33.000
52.900	41.000
52.910	28.000
52.920	18.000
52.930	24.000
52.940	23.000
52.950	25.000
52.960	19.000
52.970	23.000
52.980	24.000
52.990	25.000
53.000	18.000
53.010	16.000
53.020	17.000
53.030	18.000
53.040	21.000
53.050	17.000
53.060	17.000
53.070	17.000
53.080	6.000
53.090	17.000
53.100	20.000
53.110	12.000
53.120	18.000
53.130	13.000
53.140	20.000
53.150	14.000
53.160	12.000
53.170	14.000
53.180	11.000
53.190	12.000
53.200	15.000
53.210	15.000
53.220	7.000
53.230	14.000
53.240	20.000
53.250	5.000
53.260	11.000
53.270	9.000
53.280	8.000
53.290	12.000
53.300	12.000
53.310	6.000
53.320	11.000
53.330	16.000
53.340	7.000
53.350	9.000
53.360	10.000
53.370	13.000
53.380	12.000
53.390	10.000
53.400	8.000
53.410	10.000
53.420	7.000
53.430	16.000
53.440	8.000
53.450	7.000
53.460	8.000
53.470	10.000
53.480	11.000
53.490	12.000
53.500	10.000
53.510	13.000
53.520	6.000
53.530	12.000
53.540	11.000
53.550	11.000
53.560	15.000
53.570	14.000
53.580	10.000
53.590	5.000
53.600	11.000
53.610	13.000
53.620	14.000
53.630	5.000
53.640	8.000
53.650	8.000
53.660	7.000
53.670	9.000
53.680	11.000
53.690	8.000
53.700	7.000
53.710	5.000
53.720	7.000
53.730	6.000
53.740	10.000
53.750	11.000
53.760	6.000
53.770	7.000
53.780	7.000
53.790	6.000
53.800	9.000
53.810	7.000
53.820	9.000
53.830	10.000
53.840	4.000
53.850	6.000
53.860	7.000
53.870	9.000
53.880	13.000
53.890	8.000
53.900	3.000
53.910	13.000
53.920	5.000
53.930	12.000
53.940	9.000
53.950	8.000
53.960	3.000
53.970	4.000
53.980	8.000
53.990	8.000
54.000	12.000
54.010	9.000
54.020	11.000
54.030	6.000
54.040	12.000
54.050	9.000
54.060	8.000
54.070	7.000
54.080	8.000
54.090	6.000
54.100	5.000
54.110	9.000
54.120	7.000
54.130	4.000
54.140	4.000
54.150	12.000
54.160	8.000
54.170	11.000
54.180	13.000
54.190	7.000
54.200	6.000
54.210	7.000
54.220	9.000
54.230	4.000
54.240	9.000
54.250	8.000
54.260	11.000
54.270	3.000
54.280	6.000
54.290	3.000
54.300	5.000
54.310	10.000
54.320	6.000
54.330	4.000
54.340	7.000
54.350	9.000
54.360	7.000
54.370	12.000
54.380	9.000
54.390	8.000
54.400	8.000
54.410	6.000
54.420	7.000
54.430	2.000
54.440	8.000
54.450	5.000
54.460	13.000
54.470	7.000
54.480	11.000
54.490	7.000
54.500	6.000
54.510	7.000
54.520	10.000
54.530	10.000
54.540	6.000
54.550	10.000
54.560	11.000
54.570	9.000
54.580	3.000
54.590	11.000
54.600	5.000
54.610	7.000
54.620	6.000
54.630	7.000
54.640	6.000
54.650	11.000
54.660	9.000
54.670	4.000
54.680	4.000
54.690	7.000
54.700	8.000
54.710	3.000
54.720	6.000
54.730	9.000
54.740	6.000
54.750	7.000
54.760	4.000
54.770	5.000
54.780	9.000
54.790	8.000
54.800	8.000
54.810	13.000
54.820	12.000
54.830	7.000
54.840	9.000
54.850	9.000
54.860	8.000
54.870	8.000
54.880	8.000
54.890	9.000
54.900	9.000
54.910	12.000
54.920	10.000
54.930	7.000
54.940	8.000
54.950	8.000
54.960	15.000
54.970	3.000
54.980	8.000
54.990	5.000
55.000	14.000
55.010	6.000
55.020	12.000
55.030	11.000
55.040	7.000
55.050	7.000
55.060	8.000
55.070	7.000
55.080	13.000
55.090	14.000
55.100	8.000
55.110	7.000
55.120	6.000
55.130	6.000
55.140	9.000
55.150	6.000
55.160	4.000
55.170	7.000
55.180	8.000
55.190	6.000
55.200	5.000
55.210	7.000
55.220	9.000
55.230	8.000
55.240	11.000
55.250	9.000
55.260	9.000
55.270	7.000
55.280	6.000
55.290	8.000
55.300	4.000
55.310	9.000
55.320	5.000
55.330	15.000
55.340	7.000
55.350	3.000
55.360	10.000
55.370	15.000
55.380	9.000
55.390	7.000
55.400	10.000
55.410	7.000
55.420	10.000
55.430	13.000
55.440	13.000
55.450	10.000
55.460	11.000
55.470	8.000
55.480	9.000
55.490	14.000
55.500	7.000
55.510	10.000
55.520	10.000
55.530	5.000
55.540	4.000
55.550	11.000
55.560	11.000
55.570	9.000
55.580	6.000
55.590	11.000
55.600	9.000
55.610	9.000
55.620	8.000
55.630	8.000
55.640	6.000
55.650	12.000
55.660	13.000
55.670	13.000
55.680	6.000
55.690	9.000
55.700	17.000
55.710	12.000
55.720	14.000
55.730	6.000
55.740	8.000
55.750	9.000
55.760	4.000
55.770	11.000
55.780	7.000
55.790	4.000
55.800	8.000
55.810	5.000
55.820	14.000
55.830	13.000
55.840	10.000
55.850	18.000
55.860	11.000
55.870	13.000
55.880	7.000
55.890	7.000
55.900	6.000
55.910	11.000
55.920	9.000
55.930	9.000
55.940	7.000
55.950	8.000
55.960	10.000
55.970	6.000
55.980	5.000
55.990	9.000
56.000	11.000
56.010	4.000
56.020	10.000
56.030	8.000
56.040	6.000
56.050	9.000
56.060	10.000
56.070	10.000
56.080	21.000
56.090	12.000
56.100	8.000
56.110	10.000
56.120	14.000
56.130	8.000
56.140	8.000
56.150	7.000
56.160	10.000
56.170	8.000
56.180	12.000
56.190	10.000
56.200	5.000
56.210	12.000
56.220	5.000
56.230	13.000
56.240	3.000
56.250	15.000
56.260	14.000
56.270	7.000
56.280	10.000
56.290	14.000
56.300	10.000
56.310	7.000
56.320	9.000
56.330	8.000
56.340	6.000
56.350	8.000
56.360	5.000
56.370	12.000
56.380	11.000
56.390	5.000
56.400	5.000
56.410	9.000
56.420	8.000
56.430	11.000
56.440	10.000
56.450	8.000
56.460	8.000
56.470	8.000
56.480	14.000
56.490	8.000
56.500	13.000
56.510	10.000
56.520	9.000
56.530	10.000
56.540	8.000
56.550	10.000
56.560	19.000
56.570	6.000
56.580	13.000
56.590	12.000
56.600	5.000
56.610	13.000
56.620	10.000
56.630	9.000
56.640	9.000
56.650	8.000
56.660	8.000
56.670	8.000
56.680	15.000
56.690	9.000
56.700	9.000
56.710	5.000
56.720	14.000
56.730	19.000
56.740	8.000
56.750	9.000
56.760	12.000
56.770	10.000
56.780	13.000
56.790	9.000
56.800	10.000
56.810	18.000
56.820	10.000
56.830	14.000
56.840	14.000
56.850	18.000
56.860	15.000
56.870	16.000
56.880	18.000
56.890	6.000
56.900	12.000
56.910	12.000
56.920	11.000
56.930	12.000
56.940	10.000
56.950	18.000
56.960	17.000
56.970	20.000
56.980	15.000
56.990	15.000
57.000	15.000
57.010	14.000
57.020	16.000
57.030	8.000
57.040	13.000
57.050	16.000
57.060	22.000
57.070	12.000
57.080	15.000
57.090	8.000
57.100	33.000
57.110	17.000
57.120	15.000
57.130	21.000
57.140	19.000
57.150	23.000
57.160	22.000
57.170	23.000
57.180	25.000
57.190	26.000
57.200	34.000
57.210	31.000
57.220	29.000
57.230	29.000
57.240	23.000
57.250	28.000
57.260	31.000
57.270	38.000
57.280	35.000
57.290	48.000
57.300	36.000
57.310	35.000
57.320	47.000
57.330	43.000
57.340	57.000
57.350	55.000
57.360	47.000
57.370	53.000
57.380	54.000
57.390	88.000
57.400	81.000
57.410	88.000
57.420	90.000
57.430	123.000
57.440	145.000
57.450	145.000
57.460	161.000
57.470	213.000
57.480	241.000
57.490	304.000
57.500	357.000
57.510	380.000
57.520	512.000
57.530	571.000
57.540	713.000
57.550	821.000
57.560	769.000
57.570	760.000
57.580	658.000
57.590	515.000
57.600	406.000
57.610	325.000
57.620	336.000
57.630	273.000
57.640	268.000
57.650	270.000
57.660	278.000
57.670	357.000
57.680	344.000
57.690	386.000
57.700	435.000
57.710	451.000
57.720	450.000
57.730	380.000
57.740	335.000
57.750	266.000
57.760	217.000
57.770	152.000
57.780	161.000
57.790	112.000
57.800	128.000
57.810	110.000
57.820	75.000
57.830	73.000
57.840	69.000
57.850	57.000
57.860	60.000
57.870	51.000
57.880	46.000
57.890	56.000
57.900	42.000
57.910	53.000
57.920	40.000
57.930	23.000
57.940	34.000
57.950	41.000
57.960	29.000
57.970	28.000
57.980	32.000
57.990	26.000
58.000	26.000
58.010	30.000
58.020	22.000
58.030	18.000
58.040	22.000
58.050	21.000
58.060	22.000
58.070	23.000
58.080	22.000
58.090	11.000
58.100	17.000
58.110	16.000
58.120	18.000
58.130	16.000
58.140	19.000
58.150	11.000
58.160	13.000
58.170	18.000
58.180	19.000
58.190	18.000
58.200	26.000
58.210	17.000
58.220	21.000
58.230	10.000
58.240	10.000
58.250	12.000
58.260	14.000
58.270	18.000
58.280	10.000
58.290	8.000
58.300	16.000
58.310	9.000
58.320	9.000
58.330	19.000
58.340	12.000
58.350	11.000
58.360	9.000
58.370	10.000
58.380	19.000
58.390	15.000
58.400	13.000
58.410	12.000
58.420	14.000
58.430	8.000
58.440	6.000
58.450	18.000
58.460	10.000
58.470	10.000
58.480	8.000
58.490	14.000
58.500	12.000
58.510	10.000
58.520	12.000
58.530	9.000
58.540	10.000
58.550	9.000
58.560	12.000
58.570	9.000
58.580	6.000
58.590	11.000
58.600	8.000
58.610	18.000
58.620	14.000
58.630	12.000
58.640	13.000
58.650	11.000
58.660	11.000
58.670	13.000
58.680	11.000
58.690	6.000
58.700	12.000
58.710	10.000
58.720	10.000
58.730	7.000
58.740	10.000
58.750	8.000
58.760	5.000
58.770	10.000
58.780	4.000
58.790	11.000
58.800	7.000
58.810	13.000
58.820	8.000
58.830	11.000
58.840	13.000
58.850	8.000
58.860	9.000
58.870	10.000
58.880	9.000
58.890	10.000
58.900	9.000
58.910	12.000
58.920	13.000
58.930	13.000
58.940	5.000
58.950	9.000
58.960	8.000
58.970	5.000
58.980	11.000
58.990	11.000
59.000	8.000
59.010	13.000
59.020	12.000
59.030	6.000
59.040	11.000
59.050	11.000
59.060	11.000
59.070	8.000
59.080	5.000
59.090	5.000
59.100	3.000
59.110	9.000
59.120	13.000
59.130	5.000
59.140	8.000
59.150	8.000
59.160	6.000
59.170	11.000
59.180	8.000
59.190	9.000
59.200	12.000
59.210	17.000
59.220	15.000
59.230	17.000
59.240	16.000
59.250	12.000
59.260	5.000
59.270	8.000
59.280	6.000
59.290	12.000
59.300	4.000
59.310	9.000
59.320	11.000
59.330	5.000
59.340	11.000
59.350	11.000
59.360	20.000
59.370	10.000
59.380	10.000
59.390	14.000
59.400	9.000
59.410	10.000
59.420	13.000
59.430	8.000
59.440	13.000
59.450	13.000
59.460	12.000
59.470	12.000
59.480	7.000
59.490	15.000
59.500	10.000
59.510	13.000
59.520	7.000
59.530	6.000
59.540	10.000
59.550	12.000
59.560	3.000
59.570	13.000
59.580	13.000
59.590	10.000
59.600	18.000
59.610	12.000
59.620	9.000
59.630	8.000
59.640	11.000
59.650	12.000
59.660	14.000
59.670	8.000
59.680	8.000
59.690	14.000
59.700	15.000
59.710	11.000
59.720	20.000
59.730	16.000
59.740	18.000
59.750	20.000
59.760	25.000
59.770	31.000
59.780	21.000
59.790	25.000
59.800	26.000
59.810	28.000
59.820	22.000
59.830	19.000
59.840	15.000
59.850	20.000
59.860	21.000
59.870	8.000
59.880	14.000
59.890	13.000
59.900	17.000
59.910	14.000
59.920	18.000
59.930	19.000
59.940	11.000
59.950	20.000
59.960	19.000
59.970	17.000
59.980	19.000
59.990	14.000
60.000	19.000
60.010	10.000
60.020	15.000
60.030	11.000
60.040	4.000
60.050	12.000
60.060	12.000
60.070	7.000
60.080	8.000
60.090	12.000
60.100	18.000
60.110	12.000
60.120	5.000
60.130	9.000
60.140	6.000
60.150	13.000
60.160	16.000
60.170	5.000
60.180	6.000
60.190	6.000
60.200	8.000
60.210	13.000
60.220	10.000
60.230	8.000
60.240	6.000
60.250	9.000
60.260	6.000
60.270	5.000
60.280	9.000
60.290	7.000
60.300	9.000
60.310	6.000
60.320	11.000
60.330	8.000
60.340	5.000
60.350	8.000
60.360	9.000
60.370	8.000
60.380	9.000
60.390	9.000
60.400	8.000
60.410	9.000
60.420	13.000
60.430	9.000
60.440	7.000
60.450	4.000
60.460	7.000
60.470	13.000
60.480	8.000
60.490	6.000
60.500	8.000
60.510	11.000
60.520	13.000
60.530	6.000
60.540	9.000
60.550	9.000
60.560	12.000
60.570	8.000
60.580	8.000
60.590	8.000
60.600	7.000
60.610	8.000
60.620	7.000
60.630	8.000
60.640	11.000
60.650	14.000
60.660	7.000
60.670	8.000
60.680	13.000
60.690	9.000
60.700	9.000
60.710	6.000
60.720	9.000
60.730	3.000
60.740	11.000
60.750	9.000
60.760	5.000
60.770	11.000
60.780	10.000
60.790	8.000
60.800	11.000
60.810	10.000
60.820	7.000
60.830	12.000
60.840	12.000
60.850	16.000
60.860	9.000
60.870	8.000
60.880	11.000
60.890	20.000
60.900	17.000
60.910	20.000
60.920	17.000
60.930	19.000
60.940	19.000
60.950	10.000
60.960	16.000
60.970	17.000
60.980	15.000
60.990	19.000
61.000	11.000
61.010	13.000
61.020	12.000
61.030	13.000
61.040	12.000
61.050	17.000
61.060	15.000
61.070	12.000
61.080	17.000
61.090	14.000
61.100	14.000
61.110	21.000
61.120	12.000
61.130	21.000
61.140	21.000
61.150	22.000
61.160	29.000
61.170	36.000
61.180	40.000
61.190	36.000
61.200	26.000
61.210	25.000
61.220	21.000
61.230	24.000
61.240	19.000
61.250	17.000
61.260	24.000
61.270	34.000
61.280	31.000
61.290	32.000
61.300	36.000
61.310	37.000
61.320	54.000
61.330	55.000
61.340	68.000
61.350	94.000
61.360	85.000
61.370	79.000
61.380	65.000
61.390	32.000
61.400	42.000
61.410	34.000
61.420	27.000
61.430	22.000
61.440	22.000
61.450	31.000
61.460	32.000
61.470	19.000
61.480	27.000
61.490	21.000
61.500	30.000
61.510	32.000
61.520	40.000
61.530	49.000
61.540	39.000
61.550	33.000
61.560	23.000
61.570	17.000
61.580	15.000
61.590	17.000
61.600	12.000
61.610	16.000
61.620	16.000
61.630	15.000
61.640	12.000
61.650	12.000
61.660	8.000
61.670	9.000
61.680	14.000
61.690	16.000
61.700	11.000
61.710	6.000
61.720	15.000
61.730	13.000
61.740	11.000
61.750	7.000
61.760	10.000
61.770	14.000
61.780	7.000
61.790	13.000
61.800	11.000
61.810	10.000
61.820	13.000
61.830	9.000
61.840	12.000
61.850	10.000
61.860	10.000
61.870	11.000
61.880	12.000
61.890	16.000
61.900	13.000
61.910	8.000
61.920	5.000
61.930	10.000
61.940	8.000
61.950	13.000
61.960	14.000
61.970	4.000
61.980	3.000
61.990	8.000
62.000	8.000
62.010	11.000
62.020	15.000
62.030	4.000
62.040	8.000
62.050	12.000
62.060	7.000
62.070	6.000
62.080	9.000
62.090	2.000
62.100	8.000
62.110	11.000
62.120	6.000
62.130	9.000
62.140	10.000
62.150	9.000
62.160	10.000
62.170	7.000
62.180	6.000
62.190	10.000
62.200	7.000
62.210	12.000
62.220	8.000
62.230	3.000
62.240	5.000
62.250	6.000
62.260	6.000
62.270	3.000
62.280	7.000
62.290	9.000
62.300	13.000
62.310	8.000
62.320	9.000
62.330	7.000
62.340	4.000
62.350	6.000
62.360	6.000
62.370	3.000
62.380	1.000
62.390	7.000
62.400	11.000
62.410	9.000
62.420	5.000
62.430	4.000
62.440	5.000
62.450	3.000
62.460	4.000
62.470	10.000
62.480	15.000
62.490	9.000
62.500	7.000
62.510	6.000
62.520	13.000
62.530	9.000
62.540	17.000
62.550	8.000
62.560	9.000
62.570	10.000
62.580	6.000
62.590	11.000
62.600	13.000
62.610	11.000
62.620	8.000
62.630	7.000
62.640	7.000
62.650	6.000
62.660	7.000
62.670	8.000
62.680	6.000
62.690	4.000
62.700	9.000
62.710	8.000
62.720	6.000
62.730	6.000
62.740	8.000
62.750	11.000
62.760	6.000
62.770	7.000
62.780	8.000
62.790	5.000
62.800	6.000
62.810	8.000
62.820	12.000
62.830	6.000
62.840	9.000
62.850	9.000
62.860	8.000
62.870	6.000
62.880	4.000
62.890	9.000
62.900	8.000
62.910	7.000
62.920	5.000
62.930	5.000
62.940	10.000
62.950	9.000
62.960	5.000
62.970	7.000
62.980	8.000
62.990	12.000
63.000	10.000
63.010	12.000
63.020	7.000
63.030	4.000
63.040	5.000
63.050	6.000
63.060	8.000
63.070	5.000
63.080	4.000
63.090	10.000
63.100	5.000
63.110	9.000
63.120	5.000
63.130	5.000
63.140	6.000
63.150	6.000
63.160	5.000
63.170	10.000
63.180	12.000
63.190	8.000
63.200	8.000
63.210	7.000
63.220	7.000
63.230	7.000
63.240	10.000
63.250	7.000
63.260	9.000
63.270	9.000
63.280	8.000
63.290	11.000
63.300	6.000
63.310	9.000
63.320	6.000
63.330	9.000
63.340	8.000
63.350	6.000
63.360	11.000
63.370	4.000
63.380	12.000
63.390	15.000
63.400	5.000
63.410	7.000
63.420	8.000
63.430	10.000
63.440	12.000
63.450	8.000
63.460	8.000
63.470	7.000
63.480	5.000
63.490	7.000
63.500	7.000
63.510	6.000
63.520	6.000
63.530	7.000
63.540	7.000
63.550	4.000
63.560	9.000
63.570	10.000
63.580	12.000
63.590	9.000
63.600	7.000
63.610	10.000
63.620	6.000
63.630	12.000
63.640	9.000
63.650	13.000
63.660	7.000
63.670	11.000
63.680	4.000
63.690	15.000
63.700	7.000
63.710	5.000
63.720	10.000
63.730	11.000
63.740	10.000
63.750	7.000
63.760	7.000
63.770	6.000
63.780	7.000
63.790	11.000
63.800	6.000
63.810	6.000
63.820	5.000
63.830	6.000
63.840	4.000
63.850	3.000
63.860	5.000
63.870	11.000
63.880	6.000
63.890	8.000
63.900	3.000
63.910	8.000
63.920	7.000
63.930	5.000
63.940	6.000
63.950	7.000
63.960	8.000
63.970	9.000
63.980	8.000
63.990	6.000
64.000	8.000
64.010	9.000
64.020	6.000
64.030	10.000
64.040	8.000
64.050	5.000
64.060	5.000
64.070	10.000
64.080	10.000
64.090	9.000
64.100	3.000
64.110	5.000
64.120	7.000
64.130	8.000
64.140	8.000
64.150	13.000
64.160	6.000
64.170	6.000
64.180	9.000
64.190	4.000
64.200	4.000
64.210	5.000
64.220	10.000
64.230	6.000
64.240	10.000
64.250	11.000
64.260	13.000
64.270	8.000
64.280	11.000
64.290	11.000
64.300	4.000
64.310	12.000
64.320	9.000
64.330	7.000
64.340	11.000
64.350	6.000
64.360	6.000
64.370	8.000
64.380	8.000
64.390	5.000
64.400	6.000
64.410	9.000
64.420	6.000
64.430	5.000
64.440	8.000
64.450	6.000
64.460	5.000
64.470	7.000
64.480	7.000
64.490	13.000
64.500	6.000
64.510	4.000
64.520	7.000
64.530	11.000
64.540	6.000
64.550	7.000
64.560	7.000
64.570	10.000
64.580	7.000
64.590	6.000
64.600	7.000
64.610	6.000
64.620	8.000
64.630	7.000
64.640	5.000
64.650	5.000
64.660	9.000
64.670	14.000
64.680	4.000
64.690	9.000
64.700	6.000
64.710	4.000
64.720	13.000
64.730	8.000
64.740	8.000
64.750	7.000
64.760	8.000
64.770	9.000
64.780	8.000
64.790	9.000
64.800	9.000
64.810	7.000
64.820	7.000
64.830	7.000
64.840	7.000
64.850	12.000
64.860	12.000
64.870	11.000
64.880	6.000
64.890	6.000
64.900	6.000
64.910	10.000
64.920	5.000
64.930	9.000
64.940	2.000
64.950	6.000
64.960	13.000
64.970	8.000
64.980	5.000
64.990	11.000
65.000	4.000
65.010	4.000
65.020	11.000
65.030	4.000
65.040	4.000
65.050	10.000
65.060	9.000
65.070	10.000
65.080	11.000
65.090	8.000
65.100	8.000
65.110	11.000
65.120	8.000
65.130	12.000
65.140	13.000
65.150	9.000
65.160	8.000
65.170	7.000
65.180	6.000
65.190	8.000
65.200	5.000
65.210	6.000
65.220	10.000
65.230	10.000
65.240	8.000
65.250	9.000
65.260	8.000
65.270	6.000
65.280	6.000
65.290	8.000
65.300	10.000
65.310	8.000
65.320	6.000
65.330	4.000
65.340	6.000
65.350	10.000
65.360	5.000
65.370	5.000
65.380	8.000
65.390	9.000
65.400	7.000
65.410	7.000
65.420	9.000
65.430	8.000
65.440	5.000
65.450	6.000
65.460	4.000
65.470	5.000
65.480	7.000
65.490	17.000
65.500	10.000
65.510	8.000
65.520	11.000
65.530	8.000
65.540	6.000
65.550	16.000
65.560	7.000
65.570	6.000
65.580	11.000
65.590	12.000
65.600	14.000
65.610	8.000
65.620	14.000
65.630	10.000
65.640	5.000
65.650	11.000
65.660	13.000
65.670	8.000
65.680	6.000
65.690	11.000
65.700	3.000
65.710	11.000
65.720	9.000
65.730	7.000
65.740	8.000
65.750	11.000
65.760	17.000
65.770	14.000
65.780	7.000
65.790	12.000
65.800	10.000
65.810	13.000
65.820	10.000
65.830	11.000
65.840	9.000
65.850	8.000
65.860	13.000
65.870	15.000
65.880	6.000
65.890	5.000
65.900	11.000
65.910	13.000
65.920	7.000
65.930	15.000
65.940	10.000
65.950	6.000
65.960	18.000
65.970	21.000
65.980	13.000
65.990	9.000
66.000	14.000
66.010	10.000
66.020	10.000
66.030	12.000
66.040	12.000
66.050	9.000
66.060	14.000
66.070	14.000
66.080	14.000
66.090	14.000
66.100	4.000
66.110	13.000
66.120	12.000
66.130	13.000
66.140	10.000
66.150	21.000
66.160	22.000
66.170	15.000
66.180	18.000
66.190	15.000
66.200	15.000
66.210	20.000
66.220	12.000
66.230	21.000
66.240	13.000
66.250	9.000
66.260	23.000
66.270	28.000
66.280	20.000
66.290	21.000
66.300	28.000
66.310	21.000
66.320	25.000
66.330	20.000
66.340	20.000
66.350	25.000
66.360	30.000
66.370	31.000
66.380	48.000
66.390	36.000
66.400	44.000
66.410	29.000
66.420	37.000
66.430	39.000
66.440	53.000
66.450	53.000
66.460	55.000
66.470	75.000
66.480	88.000
66.490	89.000
66.500	126.000
66.510	127.000
66.520	168.000
66.530	200.000
66.540	215.000
66.550	252.000
66.560	288.000
66.570	265.000
66.580	290.000
66.590	245.000
66.600	208.000
66.610	161.000
66.620	149.000
66.630	141.000
66.640	120.000
66.650	99.000
66.660	100.000
66.670	89.000
66.680	101.000
66.690	99.000
66.700	89.000
66.710	111.000
66.720	126.000
66.730	132.000
66.740	126.000
66.750	169.000
66.760	140.000
66.770	167.000
66.780	121.000
66.790	113.000
66.800	98.000
66.810	82.000
66.820	60.000
66.830	53.000
66.840	51.000
66.850	48.000
66.860	34.000
66.870	36.000
66.880	26.000
66.890	29.000
66.900	30.000
66.910	17.000
66.920	21.000
66.930	27.000
66.940	30.000
66.950	33.000
66.960	25.000
66.970	20.000
66.980	28.000
66.990	18.000
67.000	19.000
67.010	12.000
67.020	19.000
67.030	14.000
67.040	20.000
67.050	15.000
67.060	14.000
67.070	9.000
67.080	14.000
67.090	13.000
67.100	15.000
67.110	11.000
67.120	11.000
67.130	5.000
67.140	12.000
67.150	16.000
67.160	19.000
67.170	8.000
67.180	10.000
67.190	14.000
67.200	14.000
67.210	10.000
67.220	7.000
67.230	11.000
67.240	9.000
67.250	11.000
67.260	16.000
67.270	16.000
67.280	8.000
67.290	10.000
67.300	15.000
67.310	8.000
67.320	9.000
67.330	12.000
67.340	11.000
67.350	12.000
67.360	15.000
67.370	8.000
67.380	6.000
67.390	16.000
67.400	18.000
67.410	12.000
67.420	12.000
67.430	8.000
67.440	15.000
67.450	12.000
67.460	8.000
67.470	11.000
67.480	14.000
67.490	13.000
67.500	21.000
67.510	16.000
67.520	9.000
67.530	12.000
67.540	9.000
67.550	17.000
67.560	14.000
67.570	19.000
67.580	10.000
67.590	9.000
67.600	18.000
67.610	9.000
67.620	14.000
67.630	6.000
67.640	15.000
67.650	12.000
67.660	13.000
67.670	8.000
67.680	20.000
67.690	12.000
67.700	17.000
67.710	15.000
67.720	11.000
67.730	18.000
67.740	12.000
67.750	15.000
67.760	13.000
67.770	16.000
67.780	16.000
67.790	17.000
67.800	18.000
67.810	19.000
67.820	10.000
67.830	13.000
67.840	13.000
67.850	30.000
67.860	22.000
67.870	18.000
67.880	18.000
67.890	17.000
67.900	26.000
67.910	19.000
67.920	20.000
67.930	20.000
67.940	23.000
67.950	28.000
67.960	20.000
67.970	25.000
67.980	27.000
67.990	32.000
68.000	28.000
68.010	26.000
68.020	40.000
68.030	33.000
68.040	32.000
68.050	34.000
68.060	46.000
68.070	34.000
68.080	31.000
68.090	57.000
68.100	66.000
68.110	55.000
68.120	69.000
68.130	66.000
68.140	82.000
68.150	92.000
68.160	83.000
68.170	114.000
68.180	103.000
68.190	137.000
68.200	179.000
68.210	213.000
68.220	261.000
68.230	305.000
68.240	351.000
68.250	365.000
68.260	371.000
68.270	379.000
68.280	294.000
68.290	259.000
68.300	235.000
68.310	202.000
68.320	178.000
68.330	151.000
68.340	167.000
68.350	114.000
68.360	122.000
68.370	113.000
68.380	107.000
68.390	127.000
68.400	138.000
68.410	133.000
68.420	176.000
68.430	174.000
68.440	198.000
68.450	218.000
68.460	231.000
68.470	210.000
68.480	147.000
68.490	157.000
68.500	115.000
68.510	91.000
68.520	70.000
68.530	77.000
68.540	69.000
68.550	46.000
68.560	47.000
68.570	53.000
68.580	39.000
68.590	51.000
68.600	37.000
68.610	38.000
68.620	34.000
68.630	34.000
68.640	24.000
68.650	33.000
68.660	30.000
68.670	23.000
68.680	21.000
68.690	24.000
68.700	30.000
68.710	20.000
68.720	16.000
68.730	19.000
68.740	18.000
68.750	22.000
68.760	14.000
68.770	11.000
68.780	15.000
68.790	15.000
68.800	18.000
68.810	23.000
68.820	16.000
68.830	15.000
68.840	12.000
68.850	10.000
68.860	12.000
68.870	14.000
68.880	21.000
68.890	11.000
68.900	10.000
68.910	15.000
68.920	20.000
68.930	18.000
68.940	17.000
68.950	12.000
68.960	18.000
68.970	19.000
68.980	8.000
68.990	11.000
69.000	15.000
69.010	9.000
69.020	11.000
69.030	9.000
69.040	5.000
69.050	10.000
69.060	14.000
69.070	8.000
69.080	7.000
69.090	7.000
69.100	12.000
69.110	14.000
69.120	10.000
69.130	11.000
69.140	8.000
69.150	8.000
69.160	7.000
69.170	12.000
69.180	10.000
69.190	13.000
69.200	12.000
69.210	14.000
69.220	12.000
69.230	8.000
69.240	13.000
69.250	10.000
69.260	6.000
69.270	14.000
69.280	9.000
69.290	16.000
69.300	12.000
69.310	7.000
69.320	8.000
69.330	6.000
69.340	9.000
69.350	5.000
69.360	6.000
69.370	12.000
69.380	11.000
69.390	11.000
69.400	7.000
69.410	14.000
69.420	9.000
69.430	9.000
69.440	14.000
69.450	11.000
69.460	10.000
69.470	15.000
69.480	14.000
69.490	10.000
69.500	8.000
69.510	14.000
69.520	6.000
69.530	13.000
69.540	7.000
69.550	9.000
69.560	8.000
69.570	4.000
69.580	7.000
69.590	6.000
69.600	6.000
69.610	11.000
69.620	14.000
69.630	12.000
69.640	7.000
69.650	11.000
69.660	6.000
69.670	11.000
69.680	13.000
69.690	11.000
69.700	5.000
69.710	10.000
69.720	10.000
69.730	9.000
69.740	10.000
69.750	8.000
69.760	10.000
69.770	7.000
69.780	14.000
69.790	9.000
69.800	6.000
69.810	5.000
69.820	10.000
69.830	11.000
69.840	14.000
69.850	4.000
69.860	7.000
69.870	9.000
69.880	15.000
69.890	9.000
69.900	3.000
69.910	7.000
69.920	9.000
69.930	6.000
69.940	16.000
69.950	12.000
69.960	9.000
69.970	12.000
69.980	9.000
69.990	7.000
70.000	10.000
70.010	10.000
70.020	5.000
70.030	8.000
70.040	3.000
70.050	9.000
70.060	14.000
70.070	5.000
70.080	10.000
70.090	4.000
70.100	7.000
70.110	8.000
70.120	9.000
70.130	8.000
70.140	5.000
70.150	12.000
70.160	10.000
70.170	8.000
70.180	9.000
70.190	5.000
70.200	8.000
70.210	2.000
70.220	8.000
70.230	4.000
70.240	6.000
70.250	6.000
70.260	8.000
70.270	5.000
70.280	6.000
70.290	4.000
70.300	11.000
70.310	7.000
70.320	8.000
70.330	17.000
70.340	7.000
70.350	10.000
70.360	6.000
70.370	13.000
70.380	12.000
70.390	15.000
70.400	11.000
70.410	15.000
70.420	15.000
70.430	7.000
70.440	18.000
70.450	16.000
70.460	15.000
70.470	25.000
70.480	19.000
70.490	18.000
70.500	11.000
70.510	18.000
70.520	13.000
70.530	13.000
70.540	5.000
70.550	9.000
70.560	12.000
70.570	10.000
70.580	5.000
70.590	7.000
70.600	16.000
70.610	10.000
70.620	14.000
70.630	13.000
70.640	17.000
70.650	19.000
70.660	11.000
70.670	12.000
70.680	15.000
70.690	6.000
70.700	10.000
70.710	13.000
70.720	11.000
70.730	7.000
70.740	9.000
70.750	8.000
70.760	11.000
70.770	9.000
70.780	9.000
70.790	3.000
70.800	11.000
70.810	5.000
70.820	13.000
70.830	8.000
70.840	7.000
70.850	8.000
70.860	6.000
70.870	6.000
70.880	6.000
70.890	9.000
70.900	10.000
70.910	6.000
70.920	9.000
70.930	9.000
70.940	7.000
70.950	6.000
70.960	4.000
70.970	7.000
70.980	7.000
70.990	10.000
71.000	5.000
71.010	5.000
71.020	9.000
71.030	9.000
71.040	8.000
71.050	10.000
71.060	7.000
71.070	7.000
71.080	8.000
71.090	6.000
71.100	9.000
71.110	7.000
71.120	3.000
71.130	9.000
71.140	6.000
71.150	12.000
71.160	13.000
71.170	8.000
71.180	4.000
71.190	6.000
71.200	7.000
71.210	5.000
71.220	11.000
71.230	10.000
71.240	10.000
71.250	4.000
71.260	11.000
71.270	7.000
71.280	4.000
71.290	7.000
71.300	4.000
71.310	10.000
71.320	6.000
71.330	10.000
71.340	8.000
71.350	10.000
71.360	12.000
71.370	8.000
71.380	6.000
71.390	11.000
71.400	13.000
71.410	15.000
71.420	9.000
71.430	12.000
71.440	12.000
71.450	8.000
71.460	5.000
71.470	5.000
71.480	7.000
71.490	6.000
71.500	3.000
71.510	8.000
71.520	5.000
71.530	11.000
71.540	5.000
71.550	7.000
71.560	7.000
71.570	7.000
71.580	4.000
71.590	6.000
71.600	7.000
71.610	9.000
71.620	8.000
71.630	13.000
71.640	6.000
71.650	3.000
71.660	14.000
71.670	8.000
71.680	11.000
71.690	7.000
71.700	9.000
71.710	7.000
71.720	8.000
71.730	6.000
71.740	12.000
71.750	5.000
71.760	6.000
71.770	10.000
71.780	8.000
71.790	5.000
71.800	12.000
71.810	4.000
71.820	6.000
71.830	10.000
71.840	8.000
71.850	4.000
71.860	7.000
71.870	12.000
71.880	10.000
71.890	5.000
71.900	7.000
71.910	2.000
71.920	8.000
71.930	7.000
71.940	4.000
71.950	7.000
71.960	4.000
71.970	5.000
71.980	6.000
71.990	5.000
72.000	4.000
72.010	9.000
72.020	11.000
72.030	6.000
72.040	3.000
72.050	6.000
72.060	8.000
72.070	5.000
72.080	9.000
72.090	8.000
72.100	2.000
72.110	5.000
72.120	5.000
72.130	7.000
72.140	9.000
72.150	10.000
72.160	8.000
72.170	7.000
72.180	5.000
72.190	6.000
72.200	7.000
72.210	4.000
72.220	6.000
72.230	4.000
72.240	5.000
72.250	3.000
72.260	9.000
72.270	7.000
72.280	8.000
72.290	8.000
72.300	9.000
72.310	6.000
72.320	6.000
72.330	9.000
72.340	6.000
72.350	5.000
72.360	6.000
72.370	6.000
72.380	13.000
72.390	3.000
72.400	12.000
72.410	6.000
72.420	6.000
72.430	8.000
72.440	7.000
72.450	11.000
72.460	2.000
72.470	4.000
72.480	4.000
72.490	13.000
72.500	6.000
72.510	9.000
72.520	4.000
72.530	9.000
72.540	8.000
72.550	4.000
72.560	10.000
72.570	5.000
72.580	6.000
72.590	10.000
72.600	10.000
72.610	13.000
72.620	14.000
72.630	4.000
72.640	9.000
72.650	7.000
72.660	7.000
72.670	7.000
72.680	12.000
72.690	3.000
72.700	6.000
72.710	6.000
72.720	8.000
72.730	9.000
72.740	7.000
72.750	8.000
72.760	14.000
72.770	4.000
72.780	4.000
72.790	10.000
72.800	5.000
72.810	6.000
72.820	6.000
72.830	10.000
72.840	10.000
72.850	6.000
72.860	6.000
72.870	6.000
72.880	8.000
72.890	3.000
72.900	13.000
72.910	9.000
72.920	5.000
72.930	8.000
72.940	2.000
72.950	3.000
72.960	11.000
72.970	10.000
72.980	8.000
72.990	10.000
73.000	7.000
73.010	10.000
73.020	4.000
73.030	5.000
73.040	9.000
73.050	4.000
73.060	11.000
73.070	4.000
73.080	3.000
73.090	10.000
73.100	3.000
73.110	8.000
73.120	6.000
73.130	8.000
73.140	8.000
73.150	5.000
73.160	7.000
73.170	9.000
73.180	4.000
73.190	6.000
73.200	5.000
73.210	6.000
73.220	7.000
73.230	5.000
73.240	9.000
73.250	12.000
73.260	5.000
73.270	8.000
73.280	4.000
73.290	5.000
73.300	10.000
73.310	8.000
73.320	7.000
73.330	12.000
73.340	10.000
73.350	6.000
73.360	6.000
73.370	4.000
73.380	10.000
73.390	4.000
73.400	17.000
73.410	2.000
73.420	11.000
73.430	5.000
73.440	7.000
73.450	10.000
73.460	6.000
73.470	10.000
73.480	14.000
73.490	4.000
73.500	4.000
73.510	11.000
73.520	6.000
73.530	8.000
73.540	6.000
73.550	7.000
73.560	6.000
73.570	7.000
73.580	8.000
73.590	7.000
73.600	5.000
73.610	6.000
73.620	4.000
73.630	8.000
73.640	4.000
73.650	6.000
73.660	4.000
73.670	10.000
73.680	15.000
73.690	6.000
73.700	5.000
73.710	7.000
73.720	4.000
73.730	5.000
73.740	11.000
73.750	7.000
73.760	12.000
73.770	8.000
73.780	7.000
73.790	5.000
73.800	8.000
73.810	9.000
73.820	10.000
73.830	5.000
73.840	8.000
73.850	10.000
73.860	7.000
73.870	9.000
73.880	9.000
73.890	7.000
73.900	6.000
73.910	6.000
73.920	7.000
73.930	5.000
73.940	9.000
73.950	3.000
73.960	15.000
73.970	7.000
73.980	9.000
73.990	10.000
74.000	9.000
74.010	7.000
74.020	11.000
74.030	9.000
74.040	11.000
74.050	7.000
74.060	8.000
74.070	15.000
74.080	6.000
74.090	6.000
74.100	8.000
74.110	5.000
74.120	7.000
74.130	13.000
74.140	8.000
74.150	8.000
74.160	9.000
74.170	10.000
74.180	7.000
74.190	8.000
74.200	6.000
74.210	8.000
74.220	8.000
74.230	12.000
74.240	6.000
74.250	9.000
74.260	16.000
74.270	6.000
74.280	15.000
74.290	14.000
74.300	12.000
74.310	17.000
74.320	17.000
74.330	21.000
74.340	12.000
74.350	18.000
74.360	27.000
74.370	14.000
74.380	11.000
74.390	15.000
74.400	12.000
74.410	12.000
74.420	9.000
74.430	11.000
74.440	11.000
74.450	7.000
74.460	5.000
74.470	2.000
74.480	13.000
74.490	6.000
74.500	13.000
74.510	7.000
74.520	19.000
74.530	11.000
74.540	16.000
74.550	19.000
74.560	12.000
74.570	16.000
74.580	6.000
74.590	11.000
74.600	12.000
74.610	13.000
74.620	9.000
74.630	12.000
74.640	10.000
74.650	10.000
74.660	6.000
74.670	10.000
74.680	10.000
74.690	10.000
74.700	14.000
74.710	13.000
74.720	11.000
74.730	6.000
74.740	9.000
74.750	6.000
74.760	7.000
74.770	3.000
74.780	6.000
74.790	7.000
74.800	3.000
74.810	10.000
74.820	6.000
74.830	10.000
74.840	5.000
74.850	5.000
74.860	6.000
74.870	8.000
74.880	11.000
74.890	7.000
74.900	3.000
74.910	5.000
74.920	5.000
74.930	6.000
74.940	2.000
74.950	6.000
74.960	10.000
74.970	7.000
74.980	6.000
74.990	6.000
75.000	12.000
75.010	10.000
75.020	7.000
75.030	5.000
75.040	8.000
75.050	10.000
75.060	8.000
75.070	4.000
75.080	8.000
75.090	7.000
75.100	11.000
75.110	10.000
75.120	6.000
75.130	5.000
75.140	6.000
75.150	9.000
75.160	8.000
75.170	2.000
75.180	7.000
75.190	4.000
75.200	3.000
75.210	7.000
75.220	6.000
75.230	4.000
75.240	9.000
75.250	6.000
75.260	7.000
75.270	1.000
75.280	6.000
75.290	8.000
75.300	8.000
75.310	7.000
75.320	10.000
75.330	9.000
75.340	4.000
75.350	9.000
75.360	5.000
75.370	9.000
75.380	2.000
75.390	6.000
75.400	5.000
75.410	9.000
75.420	6.000
75.430	9.000
75.440	8.000
75.450	3.000
75.460	6.000
75.470	8.000
75.480	8.000
75.490	5.000
75.500	14.000
75.510	3.000
75.520	7.000
75.530	5.000
75.540	4.000
75.550	7.000
75.560	10.000
75.570	10.000
75.580	8.000
75.590	5.000
75.600	11.000
75.610	8.000
75.620	5.000
75.630	9.000
75.640	6.000
75.650	8.000
75.660	9.000
75.670	4.000
75.680	8.000
75.690	2.000
75.700	10.000
75.710	7.000
75.720	7.000
75.730	7.000
75.740	9.000
75.750	6.000
75.760	10.000
75.770	10.000
75.780	10.000
75.790	9.000
75.800	7.000
75.810	14.000
75.820	6.000
75.830	7.000
75.840	14.000
75.850	5.000
75.860	5.000
75.870	5.000
75.880	5.000
75.890	6.000
75.900	4.000
75.910	7.000
75.920	5.000
75.930	9.000
75.940	4.000
75.950	7.000
75.960	4.000
75.970	8.000
75.980	10.000
75.990	7.000
76.000	11.000
76.010	7.000
76.020	6.000
76.030	7.000
76.040	10.000
76.050	7.000
76.060	5.000
76.070	4.000
76.080	4.000
76.090	7.000
76.100	6.000
76.110	8.000
76.120	6.000
76.130	11.000
76.140	4.000
76.150	13.000
76.160	4.000
76.170	11.000
76.180	9.000
76.190	10.000
76.200	10.000
76.210	7.000
76.220	6.000
76.230	8.000
76.240	12.000
76.250	7.000
76.260	8.000
76.270	6.000
76.280	10.000
76.290	9.000
76.300	4.000
76.310	7.000
76.320	15.000
76.330	4.000
76.340	12.000
76.350	13.000
76.360	8.000
76.370	7.000
76.380	8.000
76.390	14.000
76.400	7.000
76.410	2.000
76.420	9.000
76.430	4.000
76.440	17.000
76.450	12.000
76.460	11.000
76.470	9.000
76.480	14.000
76.490	9.000
76.500	9.000
76.510	6.000
76.520	10.000
76.530	11.000
76.540	9.000
76.550	9.000
76.560	9.000
76.570	8.000
76.580	19.000
76.590	13.000
76.600	12.000
76.610	5.000
76.620	9.000
76.630	18.000
76.640	7.000
76.650	18.000
76.660	6.000
76.670	15.000
76.680	8.000
76.690	17.000
76.700	11.000
76.710	21.000
76.720	11.000
76.730	18.000
76.740	20.000
76.750	24.000
76.760	18.000
76.770	13.000
76.780	22.000
76.790	16.000
76.800	26.000
76.810	23.000
76.820	24.000
76.830	25.000
76.840	37.000
76.850	27.000
76.860	45.000
76.870	47.000
76.880	59.000
76.890	79.000
76.900	93.000
76.910	83.000
76.920	80.000
76.930	86.000
76.940	94.000
76.950	72.000
76.960	59.000
76.970	48.000
76.980	37.000
76.990	35.000
77.000	37.000
77.010	37.000
77.020	25.000
77.030	31.000
77.040	42.000
77.050	30.000
77.060	40.000
77.070	30.000
77.080	42.000
77.090	36.000
77.100	37.000
77.110	52.000
77.120	53.000
77.130	43.000
77.140	65.000
77.150	52.000
77.160	54.000
77.170	52.000
77.180	46.000
77.190	52.000
77.200	44.000
77.210	54.000
77.220	36.000
77.230	42.000
77.240	37.000
77.250	49.000
77.260	45.000
77.270	53.000
77.280	54.000
77.290	53.000
77.300	44.000
77.310	38.000
77.320	36.000
77.330	41.000
77.340	32.000
77.350	27.000
77.360	19.000
77.370	21.000
77.380	33.000
77.390	20.000
77.400	15.000
77.410	11.000
77.420	14.000
77.430	20.000
77.440	17.000
77.450	21.000
77.460	30.000
77.470	13.000
77.480	33.000
77.490	27.000
77.500	27.000
77.510	27.000
77.520	14.000
77.530	28.000
77.540	31.000
77.550	14.000
77.560	22.000
77.570	17.000
77.580	20.000
77.590	17.000
77.600	12.000
77.610	10.000
77.620	8.000
77.630	13.000
77.640	15.000
77.650	6.000
77.660	11.000
77.670	13.000
77.680	15.000
77.690	8.000
77.700	15.000
77.710	8.000
77.720	11.000
77.730	15.000
77.740	10.000
77.750	7.000
77.760	9.000
77.770	8.000
77.780	10.000
77.790	5.000
77.800	13.000
77.810	13.000
77.820	9.000
77.830	5.000
77.840	14.000
77.850	6.000
77.860	8.000
77.870	9.000
77.880	7.000
77.890	8.000
77.900	13.000
77.910	10.000
77.920	8.000
77.930	3.000
77.940	8.000
77.950	10.000
77.960	8.000
77.970	6.000
77.980	12.000
77.990	10.000
78.000	8.000
78.010	6.000
78.020	9.000
78.030	12.000
78.040	10.000
78.050	10.000
78.060	7.000
78.070	5.000
78.080	3.000
78.090	12.000
78.100	8.000
78.110	4.000
78.120	9.000
78.130	4.000
78.140	6.000
78.150	4.000
78.160	7.000
78.170	10.000
78.180	8.000
78.190	9.000
78.200	6.000
78.210	10.000
78.220	6.000
78.230	6.000
78.240	5.000
78.250	3.000
78.260	5.000
78.270	6.000
78.280	13.000
78.290	12.000
78.300	6.000
78.310	10.000
78.320	6.000
78.330	6.000
78.340	6.000
78.350	7.000
78.360	6.000
78.370	3.000
78.380	11.000
78.390	6.000
78.400	12.000
78.410	9.000
78.420	10.000
78.430	7.000
78.440	6.000
78.450	6.000
78.460	7.000
78.470	15.000
78.480	10.000
78.490	8.000
78.500	10.000
78.510	6.000
78.520	7.000
78.530	9.000
78.540	9.000
78.550	3.000
78.560	7.000
78.570	9.000
78.580	11.000
78.590	17.000
78.600	9.000
78.610	5.000
78.620	6.000
78.630	8.000
78.640	14.000
78.650	10.000
78.660	8.000
78.670	7.000
78.680	9.000
78.690	6.000
78.700	5.000
78.710	7.000
78.720	7.000
78.730	8.000
78.740	6.000
78.750	9.000
78.760	3.000
78.770	7.000
78.780	8.000
78.790	7.000
78.800	7.000
78.810	5.000
78.820	11.000
78.830	7.000
78.840	5.000
78.850	4.000
78.860	9.000
78.870	3.000
78.880	9.000
78.890	9.000
78.900	5.000
78.910	9.000
78.920	7.000
78.930	9.000
78.940	2.000
78.950	12.000
78.960	13.000
78.970	9.000
78.980	7.000
78.990	8.000
79.000	4.000
79.010	6.000
79.020	4.000
79.030	6.000
79.040	5.000
79.050	7.000
79.060	4.000
79.070	6.000
79.080	6.000
79.090	5.000
79.100	6.000
79.110	10.000
79.120	5.000
79.130	6.000
79.140	9.000
79.150	8.000
79.160	12.000
79.170	9.000
79.180	6.000
79.190	7.000
79.200	8.000
79.210	4.000
79.220	7.000
79.230	7.000
79.240	6.000
79.250	5.000
79.260	5.000
79.270	4.000
79.280	10.000
79.290	9.000
79.300	10.000
79.310	12.000
79.320	4.000
79.330	9.000
79.340	10.000
79.350	9.000
79.360	8.000
79.370	6.000
79.380	6.000
79.390	7.000
79.400	9.000
79.410	4.000
79.420	5.000
79.430	7.000
79.440	7.000
79.450	9.000
79.460	8.000
79.470	7.000
79.480	9.000
79.490	2.000
79.500	9.000
79.510	8.000
79.520	4.000
79.530	3.000
79.540	5.000
79.550	7.000
79.560	2.000
79.570	5.000
79.580	7.000
79.590	13.000
79.600	4.000
79.610	9.000
79.620	6.000
79.630	7.000
79.640	4.000
79.650	3.000
79.660	3.000
79.670	4.000
79.680	5.000
79.690	7.000
79.700	8.000
79.710	9.000
79.720	9.000
79.730	12.000
79.740	5.000
79.750	6.000
79.760	5.000
79.770	14.000
79.780	4.000
79.790	6.000
79.800	11.000
79.810	8.000
79.820	10.000
79.830	9.000
79.840	8.000
79.850	5.000
79.860	4.000
79.870	4.000
79.880	9.000
79.890	7.000
79.900	6.000
79.910	8.000
79.920	10.000
79.930	2.000
79.940	5.000
79.950	6.000
79.960	8.000
79.970	9.000
79.980	6.000
79.990	5.000
80.000	10.000
80.010	11.000
80.020	4.000
80.030	11.000
80.040	6.000
80.050	8.000
80.060	7.000
80.070	9.000
80.080	6.000
80.090	7.000
80.100	7.000
80.110	6.000
80.120	10.000
80.130	11.000
80.140	3.000
80.150	11.000
80.160	5.000
80.170	8.000
80.180	8.000
80.190	10.000
80.200	7.000
80.210	6.000
80.220	6.000
80.230	9.000
80.240	7.000
80.250	5.000
80.260	9.000
80.270	2.000
80.280	9.000
80.290	10.000
80.300	6.000
80.310	9.000
80.320	8.000
80.330	9.000
80.340	8.000
80.350	5.000
80.360	5.000
80.370	14.000
80.380	10.000
80.390	10.000
80.400	13.000
80.410	5.000
80.420	17.000
80.430	9.000
80.440	11.000
80.450	8.000
80.460	11.000
80.470	14.000
80.480	16.000
80.490	15.000
80.500	10.000
80.510	14.000
80.520	6.000
80.530	7.000
80.540	13.000
80.550	18.000
80.560	10.000
80.570	14.000
80.580	10.000
80.590	13.000
80.600	10.000
80.610	10.000
80.620	14.000
80.630	14.000
80.640	12.000
80.650	18.000
80.660	15.000
80.670	31.000
80.680	18.000
80.690	37.000
80.700	29.000
80.710	47.000
80.720	30.000
80.730	36.000
80.740	57.000
80.750	39.000
80.760	42.000
80.770	38.000
80.780	49.000
80.790	19.000
80.800	25.000
80.810	22.000
80.820	26.000
80.830	9.000
80.840	24.000
80.850	19.000
80.860	8.000
80.870	19.000
80.880	18.000
80.890	23.000
80.900	19.000
80.910	20.000
80.920	19.000
80.930	21.000
80.940	20.000
80.950	24.000
80.960	21.000
80.970	27.000
80.980	31.000
80.990	36.000
81.000	29.000
81.010	20.000
81.020	19.000
81.030	10.000
81.040	20.000
81.050	17.000
81.060	15.000
81.070	15.000
81.080	13.000
81.090	8.000
81.100	10.000
81.110	11.000
81.120	7.000
81.130	5.000
81.140	5.000
81.150	4.000
81.160	6.000
81.170	12.000
81.180	9.000
81.190	8.000
81.200	9.000
81.210	9.000
81.220	7.000
81.230	7.000
81.240	11.000
81.250	11.000
81.260	12.000
81.270	7.000
81.280	8.000
81.290	5.000
81.300	8.000
81.310	15.000
81.320	7.000
81.330	7.000
81.340	6.000
81.350	3.000
81.360	5.000
81.370	9.000
81.380	6.000
81.390	5.000
81.400	5.000
81.410	7.000
81.420	5.000
81.430	7.000
81.440	4.000
81.450	7.000
81.460	2.000
81.470	1.000
81.480	10.000
81.490	6.000
81.500	10.000
81.510	6.000
81.520	12.000
81.530	6.000
81.540	5.000
81.550	6.000
81.560	8.000
81.570	7.000
81.580	5.000
81.590	14.000
81.600	8.000
81.610	8.000
81.620	2.000
81.630	8.000
81.640	7.000
81.650	9.000
81.660	5.000
81.670	8.000
81.680	14.000
81.690	7.000
81.700	5.000
81.710	4.000
81.720	2.000
81.730	9.000
81.740	9.000
81.750	6.000
81.760	8.000
81.770	8.000
81.780	4.000
81.790	11.000
81.800	10.000
81.810	5.000
81.820	4.000
81.830	7.000
81.840	4.000
81.850	10.000
81.860	4.000
81.870	6.000
81.880	9.000
81.890	3.000
81.900	5.000
81.910	5.000
81.920	5.000
81.930	4.000
81.940	5.000
81.950	5.000
81.960	7.000
81.970	6.000
81.980	4.000
81.990	9.000
82.000	3.000
82.010	5.000
82.020	5.000
82.030	9.000
82.040	5.000
82.050	4.000
82.060	6.000
82.070	4.000
82.080	7.000
82.090	5.000
82.100	7.000
82.110	7.000
82.120	8.000
82.130	9.000
82.140	8.000
82.150	11.000
82.160	5.000
82.170	7.000
82.180	9.000
82.190	5.000
82.200	5.000
82.210	8.000
82.220	8.000
82.230	8.000
82.240	3.000
82.250	7.000
82.260	4.000
82.270	3.000
82.280	9.000
82.290	5.000
82.300	8.000
82.310	7.000
82.320	4.000
82.330	4.000
82.340	8.000
82.350	4.000
82.360	8.000
82.370	8.000
82.380	5.000
82.390	8.000
82.400	7.000
82.410	4.000
82.420	1.000
82.430	5.000
82.440	10.000
82.450	5.000
82.460	6.000
82.470	6.000
82.480	9.000
82.490	8.000
82.500	3.000
82.510	6.000
82.520	10.000
82.530	8.000
82.540	7.000
82.550	5.000
82.560	8.000
82.570	5.000
82.580	5.000
82.590	12.000
82.600	7.000
82.610	6.000
82.620	3.000
82.630	6.000
82.640	9.000
82.650	4.000
82.660	11.000
82.670	4.000
82.680	8.000
82.690	8.000
82.700	7.000
82.710	9.000
82.720	6.000
82.730	4.000
82.740	6.000
82.750	5.000
82.760	9.000
82.770	13.000
82.780	9.000
82.790	4.000
82.800	8.000
82.810	6.000
82.820	4.000
82.830	7.000
82.840	7.000
82.850	10.000
82.860	6.000
82.870	11.000
82.880	12.000
82.890	6.000
82.900	5.000
82.910	6.000
82.920	3.000
82.930	8.000
82.940	4.000
82.950	5.000
82.960	10.000
82.970	9.000
82.980	7.000
82.990	9.000
83.000	9.000
83.010	7.000
83.020	11.000
83.030	7.000
83.040	8.000
83.050	7.000
83.060	9.000
83.070	7.000
83.080	4.000
83.090	8.000
83.100	8.000
83.110	9.000
83.120	5.000
83.130	7.000
83.140	11.000
83.150	9.000
83.160	12.000
83.170	4.000
83.180	8.000
83.190	6.000
83.200	6.000
83.210	6.000
83.220	5.000
83.230	9.000
83.240	11.000
83.250	10.000
83.260	11.000
83.270	9.000
83.280	13.000
83.290	7.000
83.300	11.000
83.310	10.000
83.320	10.000
83.330	4.000
83.340	4.000
83.350	6.000
83.360	7.000
83.370	8.000
83.380	12.000
83.390	9.000
83.400	3.000
83.410	5.000
83.420	6.000
83.430	8.000
83.440	10.000
83.450	10.000
83.460	5.000
83.470	8.000
83.480	8.000
83.490	13.000
83.500	5.000
83.510	11.000
83.520	9.000
83.530	4.000
83.540	8.000
83.550	8.000
83.560	9.000
83.570	6.000
83.580	13.000
83.590	4.000
83.600	6.000
83.610	7.000
83.620	8.000
83.630	8.000
83.640	15.000
83.650	10.000
83.660	12.000
83.670	8.000
83.680	3.000
83.690	7.000
83.700	8.000
83.710	12.000
83.720	9.000
83.730	5.000
83.740	11.000
83.750	7.000
83.760	8.000
83.770	8.000
83.780	13.000
83.790	10.000
83.800	4.000
83.810	9.000
83.820	8.000
83.830	6.000
83.840	9.000
83.850	14.000
83.860	6.000
83.870	7.000
83.880	7.000
83.890	8.000
83.900	15.000
83.910	3.000
83.920	12.000
83.930	5.000
83.940	12.000
83.950	4.000
83.960	8.000
83.970	2.000
83.980	6.000
83.990	9.000
84.000	7.000
84.010	8.000
84.020	11.000
84.030	7.000
84.040	7.000
84.050	10.000
84.060	9.000
84.070	6.000
84.080	7.000
84.090	9.000
84.100	13.000
84.110	15.000
84.120	10.000
84.130	6.000
84.140	14.000
84.150	11.000
84.160	6.000
84.170	10.000
84.180	6.000
84.190	7.000
84.200	10.000
84.210	13.000
84.220	11.000
84.230	14.000
84.240	11.000
84.250	7.000
84.260	12.000
84.270	11.000
84.280	15.000
84.290	14.000
84.300	12.000
84.310	16.000
84.320	18.000
84.330	21.000
84.340	26.000
84.350	23.000
84.360	32.000
84.370	29.000
84.380	35.000
84.390	39.000
84.400	27.000
84.410	48.000
84.420	26.000
84.430	28.000
84.440	23.000
84.450	24.000
84.460	23.000
84.470	19.000
84.480	24.000
84.490	6.000
84.500	15.000
84.510	17.000
84.520	13.000
84.530	15.000
84.540	12.000
84.550	8.000
84.560	21.000
84.570	9.000
84.580	12.000
84.590	10.000
84.600	19.000
84.610	17.000
84.620	19.000
84.630	16.000
84.640	17.000
84.650	19.000
84.660	26.000
84.670	29.000
84.680	21.000
84.690	24.000
84.700	16.000
84.710	15.000
84.720	15.000
84.730	12.000
84.740	12.000
84.750	8.000
84.760	5.000
84.770	11.000
84.780	6.000
84.790	5.000
84.800	8.000
84.810	14.000
84.820	7.000
84.830	11.000
84.840	3.000
84.850	5.000
84.860	7.000
84.870	9.000
84.880	10.000
84.890	2.000
84.900	11.000
84.910	5.000
84.920	7.000
84.930	5.000
84.940	7.000
84.950	6.000
84.960	9.000
84.970	7.000
84.980	7.000
84.990	5.000
85.000	1.000
85.010	12.000
85.020	8.000
85.030	8.000
85.040	11.000
85.050	7.000
85.060	8.000
85.070	5.000
85.080	8.000
85.090	8.000
85.100	7.000
85.110	9.000
85.120	9.000
85.130	10.000
85.140	5.000
85.150	6.000
85.160	18.000
85.170	3.000
85.180	8.000
85.190	9.000
85.200	6.000
85.210	8.000
85.220	13.000
85.230	7.000
85.240	4.000
85.250	6.000
85.260	14.000
85.270	16.000
85.280	6.000
85.290	6.000
85.300	7.000
85.310	9.000
85.320	8.000
85.330	8.000
85.340	5.000
85.350	3.000
85.360	6.000
85.370	7.000
85.380	7.000
85.390	2.000
85.400	6.000
85.410	7.000
85.420	7.000
85.430	10.000
85.440	8.000
85.450	6.000
85.460	6.000
85.470	10.000
85.480	8.000
85.490	7.000
85.500	11.000
85.510	6.000
85.520	9.000
85.530	5.000
85.540	5.000
85.550	10.000
85.560	2.000
85.570	9.000
85.580	9.000
85.590	4.000
85.600	8.000
85.610	4.000
85.620	8.000
85.630	8.000
85.640	7.000
85.650	5.000
85.660	5.000
85.670	6.000
85.680	5.000
85.690	9.000
85.700	12.000
85.710	10.000
85.720	4.000
85.730	11.000
85.740	5.000
85.750	6.000
85.760	4.000
85.770	9.000
85.780	7.000
85.790	8.000
85.800	6.000
85.810	10.000
85.820	9.000
85.830	7.000
85.840	11.000
85.850	4.000
85.860	5.000
85.870	10.000
85.880	4.000
85.890	10.000
85.900	8.000
85.910	9.000
85.920	11.000
85.930	12.000
85.940	6.000
85.950	12.000
85.960	14.000
85.970	9.000
85.980	7.000
85.990	9.000
86.000	3.000
86.010	4.000
86.020	6.000
86.030	7.000
86.040	9.000
86.050	4.000
86.060	8.000
86.070	8.000
86.080	8.000
86.090	7.000
86.100	6.000
86.110	9.000
86.120	7.000
86.130	11.000
86.140	10.000
86.150	7.000
86.160	7.000
86.170	5.000
86.180	11.000
86.190	19.000
86.200	15.000
86.210	8.000
86.220	6.000
86.230	4.000
86.240	20.000
86.250	11.000
86.260	15.000
86.270	13.000
86.280	13.000
86.290	13.000
86.300	13.000
86.310	15.000
86.320	14.000
86.330	19.000
86.340	19.000
86.350	18.000
86.360	24.000
86.370	24.000
86.380	34.000
86.390	28.000
86.400	32.000
86.410	27.000
86.420	24.000
86.430	22.000
86.440	27.000
86.450	22.000
86.460	22.000
86.470	17.000
86.480	20.000
86.490	19.000
86.500	28.000
86.510	27.000
86.520	29.000
86.530	26.000
86.540	23.000
86.550	21.000
86.560	25.000
86.570	21.000
86.580	23.000
86.590	26.000
86.600	25.000
86.610	17.000
86.620	22.000
86.630	27.000
86.640	21.000
86.650	24.000
86.660	17.000
86.670	11.000
86.680	17.000
86.690	16.000
86.700	19.000
86.710	16.000
86.720	26.000
86.730	13.000
86.740	12.000
86.750	13.000
86.760	14.000
86.770	13.000
86.780	14.000
86.790	17.000
86.800	17.000
86.810	18.000
86.820	11.000
86.830	15.000
86.840	17.000
86.850	15.000
86.860	9.000
86.870	10.000
86.880	8.000
86.890	17.000
86.900	18.000
86.910	7.000
86.920	4.000
86.930	12.000
86.940	11.000
86.950	11.000
86.960	8.000
86.970	9.000
86.980	12.000
86.990	8.000
87.000	7.000
87.010	8.000
87.020	7.000
87.030	6.000
87.040	6.000
87.050	8.000
87.060	8.000
87.070	4.000
87.080	8.000
87.090	7.000
87.100	11.000
87.110	5.000
87.120	8.000
87.130	10.000
87.140	6.000
87.150	12.000
87.160	8.000
87.170	7.000
87.180	3.000
87.190	10.000
87.200	9.000
87.210	5.000
87.220	10.000
87.230	9.000
87.240	7.000
87.250	9.000
87.260	4.000
87.270	9.000
87.280	5.000
87.290	10.000
87.300	6.000
87.310	2.000
87.320	12.000
87.330	7.000
87.340	6.000
87.350	11.000
87.360	3.000
87.370	5.000
87.380	5.000
87.390	8.000
87.400	7.000
87.410	6.000
87.420	6.000
87.430	9.000
87.440	6.000
87.450	6.000
87.460	7.000
87.470	4.000
87.480	4.000
87.490	5.000
87.500	9.000
87.510	7.000
87.520	5.000
87.530	7.000
87.540	7.000
87.550	6.000
87.560	7.000
87.570	6.000
87.580	5.000
87.590	5.000
87.600	5.000
87.610	8.000
87.620	6.000
87.630	7.000
87.640	3.000
87.650	10.000
87.660	9.000
87.670	10.000
87.680	4.000
87.690	9.000
87.700	6.000
87.710	6.000
87.720	11.000
87.730	5.000
87.740	9.000
87.750	8.000
87.760	7.000
87.770	7.000
87.780	8.000
87.790	10.000
87.800	8.000
87.810	3.000
87.820	9.000
87.830	5.000
87.840	7.000
87.850	5.000
87.860	8.000
87.870	8.000
87.880	4.000
87.890	6.000
87.900	8.000
87.910	6.000
87.920	10.000
87.930	7.000
87.940	8.000
87.950	5.000
87.960	5.000
87.970	13.000
87.980	5.000
87.990	9.000
88.000	6.000
88.010	6.000
88.020	3.000
88.030	7.000
88.040	3.000
88.050	7.000
88.060	10.000
88.070	7.000
88.080	10.000
88.090	3.000
88.100	6.000
88.110	5.000
88.120	5.000
88.130	10.000
88.140	9.000
88.150	6.000
88.160	7.000
88.170	10.000
88.180	4.000
88.190	7.000
88.200	3.000
88.210	9.000
88.220	6.000
88.230	5.000
88.240	5.000
88.250	3.000
88.260	5.000
88.270	7.000
88.280	8.000
88.290	9.000
88.300	6.000
88.310	5.000
88.320	8.000
88.330	12.000
88.340	10.000
88.350	8.000
88.360	5.000
88.370	12.000
88.380	4.000
88.390	11.000
88.400	6.000
88.410	9.000
88.420	4.000
88.430	10.000
88.440	11.000
88.450	9.000
88.460	9.000
88.470	4.000
88.480	8.000
88.490	7.000
88.500	6.000
88.510	8.000
88.520	12.000
88.530	3.000
88.540	7.000
88.550	9.000
88.560	6.000
88.570	11.000
88.580	6.000
88.590	5.000
88.600	10.000
88.610	1.000
88.620	7.000
88.630	12.000
88.640	7.000
88.650	3.000
88.660	9.000
88.670	1.000
88.680	6.000
88.690	13.000
88.700	5.000
88.710	12.000
88.720	8.000
88.730	7.000
88.740	9.000
88.750	9.000
88.760	5.000
88.770	5.000
88.780	5.000
88.790	7.000
88.800	10.000
88.810	15.000
88.820	10.000
88.830	13.000
88.840	14.000
88.850	9.000
88.860	17.000
88.870	12.000
88.880	11.000
88.890	11.000
88.900	22.000
88.910	18.000
88.920	11.000
88.930	16.000
88.940	17.000
88.950	22.000
88.960	23.000
88.970	28.000
88.980	37.000
88.990	32.000
89.000	35.000
89.010	44.000
89.020	37.000
89.030	47.000
89.040	45.000
89.050	58.000
89.060	58.000
89.070	43.000
89.080	28.000
89.090	44.000
89.100	42.000
89.110	22.000
89.120	15.000
89.130	23.000
89.140	17.000
89.150	20.000
89.160	16.000
89.170	16.000
89.180	17.000
89.190	21.000
89.200	22.000
89.210	19.000
89.220	12.000
89.230	19.000
89.240	29.000
89.250	22.000
89.260	25.000
89.270	30.000
89.280	29.000
89.290	25.000
89.300	27.000
89.310	32.000
89.320	31.000
89.330	26.000
89.340	36.000
89.350	21.000
89.360	33.000
89.370	31.000
89.380	17.000
89.390	14.000
89.400	15.000
89.410	23.000
89.420	13.000
89.430	13.000
89.440	8.000
89.450	10.000
89.460	11.000
89.470	6.000
89.480	8.000
89.490	7.000
89.500	10.000
89.510	12.000
89.520	9.000
89.530	11.000
89.540	10.000
89.550	12.000
89.560	8.000
89.570	14.000
89.580	9.000
89.590	16.000
89.600	11.000
89.610	8.000
89.620	5.000
89.630	4.000
89.640	11.000
89.650	8.000
89.660	11.000
89.670	12.000
89.680	9.000
89.690	4.000
89.700	12.000
89.710	7.000
89.720	6.000
89.730	7.000
89.740	5.000
89.750	4.000
89.760	7.000
89.770	4.000
89.780	5.000
89.790	10.000
89.800	8.000
89.810	10.000
89.820	9.000
89.830	6.000
89.840	9.000
89.850	10.000
89.860	6.000
89.870	13.000
89.880	5.000
89.890	8.000
89.900	7.000
89.910	15.000
89.920	6.000
89.930	8.000
89.940	5.000
89.950	3.000
89.960	10.000
89.970	9.000
89.980	4.000
89.990	8.000


